'Id: "" Comment: "" Operator: "Lab Manager" Anode: "Mo" Scantype: "Coupled TwoTheta/Theta" TimePerStep: "288" X: "9999" Y: "9999" Z: "9999" 
10.0000 0.000 0.343
10.0071 0.533 0.346
10.0143 0.070 0.343
10.0214 -0.046 0.342
10.0286 0.942 0.347
10.0357 -0.465 0.340
10.0429 0.103 0.342
10.0500 0.369 0.343
10.0572 -0.178 0.340
10.0643 0.328 0.342
10.0715 0.566 0.343
10.0786 0.537 0.343
10.0857 0.175 0.341
10.0929 0.173 0.340
10.1000 -0.384 0.337
10.1072 -0.157 0.338
10.1143 0.145 0.339
10.1215 0.062 0.339
10.1286 0.053 0.338
10.1358 -0.336 0.336
10.1429 -0.424 0.335
10.1500 0.348 0.339
10.1572 0.294 0.338
10.1643 0.289 0.338
10.1715 0.350 0.338
10.1786 -0.371 0.334
10.1858 0.155 0.337
10.1929 0.352 0.337
10.2001 -0.254 0.334
10.2072 -0.197 0.334
10.2144 0.030 0.335
10.2215 0.237 0.336
10.2286 0.135 0.335
10.2358 -0.537 0.332
10.2429 0.239 0.335
10.2501 -0.270 0.332
10.2572 0.486 0.336
10.2644 0.328 0.335
10.2715 -0.257 0.332
10.2787 -0.058 0.333
10.2858 -0.598 0.330
10.2930 0.744 0.336
10.3001 -0.261 0.331
10.3072 -0.325 0.330
10.3144 0.059 0.332
10.3215 0.071 0.332
10.3287 0.309 0.333
10.3358 -0.512 0.328
10.3430 0.236 0.332
10.3501 -0.276 0.329
10.3573 0.535 0.333
10.3644 -0.570 0.327
10.3715 -0.003 0.330
10.3787 0.010 0.330
10.3858 0.286 0.331
10.3930 0.107 0.330
10.4001 0.526 0.332
10.4073 -0.094 0.328
10.4144 -0.352 0.327
10.4216 0.085 0.329
10.4287 0.311 0.330
10.4359 -0.629 0.325
10.4430 -0.251 0.327
10.4501 0.055 0.328
10.4573 -0.236 0.326
10.4644 0.260 0.329
10.4716 0.049 0.328
10.4787 0.650 0.331
10.4859 -0.433 0.325
10.4930 0.060 0.327
10.5002 -0.075 0.326
10.5073 0.259 0.328
10.5145 0.349 0.328
10.5216 0.440 0.328
10.5287 0.149 0.327
10.5359 -0.139 0.325
10.5430 -0.021 0.326
10.5502 0.035 0.326
10.5573 0.265 0.327
10.5645 0.001 0.325
10.5716 0.158 0.326
10.5788 0.453 0.327
10.5859 0.797 0.329
10.5931 -0.463 0.322
10.6002 -0.230 0.323
10.6073 0.041 0.324
10.6145 0.708 0.328
10.6216 -0.041 0.324
10.6288 0.258 0.325
10.6359 0.251 0.325
10.6431 -0.804 0.319
10.6502 -0.250 0.322
10.6574 0.414 0.325
10.6645 0.100 0.323
10.6716 0.313 0.324
10.6788 -0.092 0.322
10.6859 0.642 0.326
10.6931 -0.356 0.320
10.7002 -0.320 0.320
10.7074 0.193 0.323
10.7145 0.098 0.322
10.7217 -0.066 0.321
10.7288 0.055 0.322
10.7360 0.391 0.324
10.7431 0.002 0.321
10.7502 0.133 0.322
10.7574 0.101 0.322
10.7645 -0.379 0.319
10.7717 0.061 0.321
10.7788 0.304 0.323
10.7860 0.303 0.323
10.7931 0.497 0.323
10.8003 -0.233 0.319
10.8074 0.454 0.323
10.8146 0.578 0.324
10.8217 0.279 0.322
10.8288 -0.500 0.318
10.8360 0.653 0.324
10.8431 0.617 0.324
10.8503 0.044 0.320
10.8574 -0.030 0.320
10.8646 0.167 0.321
10.8717 0.181 0.321
10.8789 0.576 0.323
10.8860 0.235 0.321
10.8931 0.398 0.322
10.9003 0.650 0.323
10.9074 0.355 0.321
10.9146 0.062 0.320
10.9217 -0.143 0.318
10.9289 0.134 0.320
10.9360 0.745 0.323
10.9432 -0.113 0.318
10.9503 0.556 0.322
10.9575 -0.156 0.318
10.9646 -0.001 0.319
10.9717 0.179 0.320
10.9789 0.165 0.319
10.9860 0.505 0.321
10.9932 -0.048 0.318
11.0003 0.365 0.320
11.0075 0.382 0.320
11.0146 0.412 0.320
11.0218 0.016 0.318
11.0289 0.696 0.322
11.0361 0.769 0.322
11.0432 0.126 0.318
11.0503 -0.316 0.316
11.0575 -0.539 0.314
11.0646 0.648 0.321
11.0718 0.412 0.320
11.0789 0.175 0.318
11.0861 0.810 0.321
11.0932 -0.090 0.316
11.1004 -0.177 0.316
11.1075 0.423 0.319
11.1146 0.332 0.319
11.1218 1.005 0.322
11.1289 0.665 0.320
11.1361 0.869 0.321
11.1432 0.157 0.317
11.1504 0.167 0.317
11.1575 -0.018 0.316
11.1647 0.652 0.320
11.1718 0.763 0.320
11.1790 0.068 0.316
11.1861 0.109 0.316
11.1932 0.744 0.320
11.2004 0.389 0.318
11.2075 0.458 0.318
11.2147 0.760 0.320
11.2218 0.753 0.319
11.2290 0.881 0.320
11.2361 0.797 0.319
11.2433 0.602 0.318
11.2504 0.699 0.319
11.2576 0.851 0.320
11.2647 0.934 0.320
11.2718 0.361 0.317
11.2790 0.718 0.318
11.2861 0.444 0.317
11.2933 0.530 0.317
11.3004 0.985 0.320
11.3076 0.703 0.318
11.3147 0.855 0.319
11.3219 0.529 0.317
11.3290 0.362 0.316
11.3362 1.018 0.319
11.3433 0.819 0.318
11.3504 -0.039 0.313
11.3576 0.899 0.318
11.3647 0.770 0.318
11.3719 1.388 0.321
11.3790 0.554 0.316
11.3862 0.682 0.317
11.3933 0.748 0.317
11.4005 1.095 0.319
11.4076 1.383 0.320
11.4147 0.900 0.318
11.4219 0.809 0.317
11.4290 1.056 0.318
11.4362 0.462 0.315
11.4433 0.805 0.317
11.4505 1.357 0.320
11.4576 1.173 0.319
11.4648 1.242 0.319
11.4719 0.981 0.317
11.4791 0.703 0.316
11.4862 1.627 0.321
11.4933 1.477 0.320
11.5005 1.116 0.318
11.5076 0.539 0.315
11.5148 1.237 0.318
11.5219 1.181 0.318
11.5291 1.296 0.318
11.5362 1.337 0.319
11.5434 1.042 0.317
11.5505 1.604 0.320
11.5577 1.531 0.319
11.5648 1.347 0.318
11.5719 1.138 0.317
11.5791 2.242 0.323
11.5862 1.589 0.319
11.5934 1.346 0.318
11.6005 1.582 0.319
11.6077 1.478 0.318
11.6148 1.721 0.320
11.6220 1.658 0.319
11.6291 1.321 0.317
11.6362 1.477 0.318
11.6434 1.345 0.317
11.6505 1.831 0.320
11.6577 1.366 0.317
11.6648 0.967 0.315
11.6720 1.894 0.320
11.6791 1.970 0.320
11.6863 1.796 0.319
11.6934 1.821 0.319
11.7006 1.904 0.319
11.7077 1.921 0.319
11.7148 1.307 0.316
11.7220 1.116 0.315
11.7291 1.751 0.318
11.7363 1.622 0.317
11.7434 1.779 0.318
11.7506 1.174 0.315
11.7577 2.692 0.323
11.7649 1.917 0.319
11.7720 2.358 0.321
11.7792 2.220 0.320
11.7863 1.820 0.318
11.7934 2.428 0.321
11.8006 1.720 0.317
11.8077 2.230 0.320
11.8149 2.206 0.320
11.8220 1.838 0.317
11.8292 2.425 0.321
11.8363 2.084 0.319
11.8435 2.314 0.320
11.8506 2.595 0.321
11.8577 2.133 0.319
11.8649 2.411 0.320
11.8720 1.748 0.316
11.8792 2.453 0.320
11.8863 2.602 0.321
11.8935 1.911 0.317
11.9006 2.582 0.320
11.9078 2.936 0.322
11.9149 2.412 0.319
11.9221 2.808 0.321
11.9292 2.839 0.321
11.9363 2.221 0.318
11.9435 2.488 0.319
11.9506 2.419 0.319
11.9578 2.360 0.319
11.9649 2.395 0.319
11.9721 2.482 0.319
11.9792 2.534 0.319
11.9864 2.236 0.317
11.9935 2.427 0.318
12.0007 2.247 0.317
12.0078 2.830 0.320
12.0149 2.282 0.317
12.0221 2.834 0.320
12.0292 2.532 0.318
12.0364 2.744 0.320
12.0435 2.932 0.320
12.0507 2.154 0.316
12.0578 3.654 0.324
12.0650 3.005 0.321
12.0721 2.811 0.319
12.0792 2.902 0.320
12.0864 2.114 0.315
12.0935 2.419 0.317
12.1007 3.493 0.323
12.1078 3.475 0.323
12.1150 3.097 0.320
12.1221 2.941 0.319
12.1293 3.508 0.322
12.1364 2.890 0.319
12.1436 2.907 0.319
12.1507 2.897 0.319
12.1578 2.991 0.319
12.1650 2.683 0.317
12.1721 2.704 0.318
12.1793 3.169 0.320
12.1864 3.006 0.319
12.1936 3.378 0.321
12.2007 3.285 0.320
12.2079 2.834 0.318
12.2150 3.851 0.323
12.2222 3.074 0.319
12.2293 3.668 0.322
12.2364 3.620 0.322
12.2436 3.381 0.320
12.2507 3.030 0.318
12.2579 3.315 0.320
12.2650 3.382 0.320
12.2722 3.788 0.322
12.2793 3.500 0.320
12.2865 3.230 0.319
12.2936 2.894 0.317
12.3008 3.988 0.323
12.3079 3.860 0.322
12.3150 3.093 0.318
12.3222 3.576 0.320
12.3293 3.576 0.320
12.3365 3.219 0.318
12.3436 3.761 0.321
12.3508 3.557 0.320
12.3579 3.217 0.318
12.3651 3.682 0.320
12.3722 3.981 0.322
12.3793 3.298 0.318
12.3865 3.531 0.319
12.3936 3.719 0.320
12.4008 3.716 0.320
12.4079 3.765 0.320
12.4151 3.766 0.320
12.4222 4.287 0.323
12.4294 4.100 0.322
12.4365 3.652 0.319
12.4437 3.851 0.320
12.4508 2.952 0.315
12.4579 3.512 0.318
12.4651 3.925 0.320
12.4722 4.082 0.321
12.4794 3.760 0.319
12.4865 3.837 0.319
12.4937 3.757 0.319
12.5008 3.921 0.320
12.5080 4.244 0.321
12.5151 3.839 0.319
12.5223 3.884 0.319
12.5294 3.833 0.319
12.5365 4.160 0.320
12.5437 3.824 0.319
12.5508 3.651 0.318
12.5580 3.728 0.318
12.5651 3.475 0.316
12.5723 3.982 0.319
12.5794 3.934 0.319
12.5866 3.449 0.316
12.5937 4.144 0.320
12.6008 4.690 0.322
12.6080 3.867 0.318
12.6151 4.062 0.319
12.6223 4.209 0.320
12.6294 4.182 0.319
12.6366 4.686 0.322
12.6437 3.957 0.318
12.6509 3.850 0.317
12.6580 3.566 0.316
12.6652 4.313 0.320
12.6723 4.443 0.320
12.6794 3.981 0.318
12.6866 3.808 0.317
12.6937 4.097 0.318
12.7009 4.744 0.321
12.7080 4.196 0.318
12.7152 4.624 0.321
12.7223 4.593 0.320
12.7295 3.934 0.317
12.7366 3.615 0.315
12.7438 4.588 0.320
12.7509 3.981 0.317
12.7580 3.715 0.315
12.7652 4.153 0.317
12.7723 4.505 0.319
12.7795 4.359 0.318
12.7866 3.885 0.316
12.7938 4.239 0.317
12.8009 4.504 0.319
12.8081 3.633 0.314
12.8152 3.839 0.315
12.8223 4.409 0.318
12.8295 4.410 0.318
12.8366 3.866 0.315
12.8438 4.498 0.318
12.8509 3.954 0.315
12.8581 4.642 0.319
12.8652 4.435 0.317
12.8724 4.634 0.318
12.8795 4.395 0.317
12.8867 4.094 0.315
12.8938 4.313 0.316
12.9009 5.158 0.321
12.9081 4.322 0.316
12.9152 4.389 0.317
12.9224 4.292 0.316
12.9295 4.873 0.319
12.9367 4.540 0.317
12.9438 4.104 0.315
12.9510 4.407 0.316
12.9581 4.304 0.315
12.9653 4.360 0.316
12.9724 4.725 0.318
12.9795 3.890 0.313
12.9867 4.422 0.316
12.9938 3.884 0.313
13.0010 4.396 0.315
13.0081 4.345 0.315
13.0153 4.609 0.316
13.0224 4.763 0.317
13.0296 4.316 0.315
13.0367 4.428 0.315
13.0439 4.249 0.314
13.0510 3.968 0.312
13.0581 4.455 0.315
13.0653 4.408 0.315
13.0724 4.259 0.314
13.0796 3.458 0.309
13.0867 4.352 0.314
13.0939 4.495 0.315
13.1010 3.815 0.311
13.1082 4.612 0.315
13.1153 4.234 0.313
13.1224 4.318 0.313
13.1296 4.406 0.314
13.1367 4.227 0.313
13.1439 4.325 0.313
13.1510 4.430 0.313
13.1582 4.573 0.314
13.1653 4.422 0.313
13.1725 4.291 0.312
13.1796 3.813 0.310
13.1868 4.550 0.314
13.1939 4.631 0.314
13.2010 4.597 0.314
13.2082 3.675 0.308
13.2153 4.287 0.312
13.2225 3.569 0.308
13.2296 3.785 0.309
13.2368 3.578 0.307
13.2439 4.427 0.312
13.2511 4.185 0.311
13.2582 4.554 0.313
13.2654 4.413 0.312
13.2725 4.480 0.312
13.2796 3.845 0.308
13.2868 3.996 0.309
13.2939 4.278 0.311
13.3011 4.113 0.309
13.3082 3.652 0.307
13.3154 4.841 0.313
13.3225 4.786 0.313
13.3297 4.332 0.310
13.3368 4.202 0.309
13.3439 3.967 0.308
13.3511 3.794 0.307
13.3582 3.966 0.308
13.3654 4.022 0.308
13.3725 4.079 0.308
13.3797 4.372 0.310
13.3868 3.811 0.307
13.3940 3.958 0.307
13.4011 3.553 0.305
13.4083 4.425 0.310
13.4154 4.132 0.308
13.4225 3.779 0.306
13.4297 4.315 0.309
13.4368 4.590 0.310
13.4440 3.911 0.306
13.4511 4.221 0.308
13.4583 3.986 0.306
13.4654 3.838 0.306
13.4726 4.197 0.307
13.4797 3.691 0.304
13.4869 3.672 0.304
13.4940 4.201 0.307
13.5011 4.112 0.307
13.5083 3.999 0.306
13.5154 3.260 0.301
13.5226 3.710 0.304
13.5297 3.971 0.305
13.5369 3.434 0.302
13.5440 3.349 0.302
13.5512 2.927 0.299
13.5583 4.036 0.305
13.5654 3.898 0.304
13.5726 4.004 0.305
13.5797 4.054 0.305
13.5869 4.017 0.305
13.5940 3.601 0.302
13.6012 3.405 0.301
13.6083 3.549 0.302
13.6155 3.276 0.300
13.6226 4.093 0.305
13.6298 3.671 0.302
13.6369 3.964 0.304
13.6440 4.080 0.304
13.6512 3.901 0.303
13.6583 3.294 0.300
13.6655 3.976 0.303
13.6726 3.311 0.299
13.6798 4.000 0.303
13.6869 3.526 0.300
13.6941 4.305 0.305
13.7012 3.480 0.300
13.7084 3.603 0.301
13.7155 3.757 0.301
13.7226 3.172 0.298
13.7298 3.212 0.298
13.7369 3.671 0.301
13.7441 3.725 0.301
13.7512 3.678 0.300
13.7584 3.606 0.300
13.7655 2.997 0.296
13.7727 3.130 0.297
13.7798 3.552 0.299
13.7869 3.328 0.298
13.7941 2.576 0.293
13.8012 2.907 0.295
13.8084 3.231 0.297
13.8155 3.639 0.299
13.8227 3.405 0.298
13.8298 3.295 0.297
13.8370 3.147 0.296
13.8441 3.229 0.296
13.8513 3.331 0.297
13.8584 3.200 0.296
13.8655 3.244 0.296
13.8727 3.256 0.296
13.8798 3.021 0.295
13.8870 2.884 0.294
13.8941 3.115 0.295
13.9013 3.411 0.296
13.9084 3.243 0.295
13.9156 2.935 0.293
13.9227 3.211 0.295
13.9299 3.081 0.294
13.9370 2.798 0.292
13.9441 3.088 0.294
13.9513 3.561 0.297
13.9584 3.355 0.295
13.9656 2.961 0.293
13.9727 2.681 0.291
13.9799 3.071 0.293
13.9870 3.622 0.296
13.9942 2.755 0.291
14.0013 2.632 0.290
14.0085 3.075 0.293
14.0156 2.708 0.291
14.0227 3.054 0.292
14.0299 2.416 0.289
14.0370 2.949 0.292
14.0442 2.944 0.291
14.0513 2.894 0.291
14.0585 3.409 0.294
14.0656 2.328 0.287
14.0728 2.392 0.288
14.0799 2.196 0.286
14.0870 2.621 0.289
14.0942 2.675 0.289
14.1013 2.517 0.288
14.1085 2.279 0.286
14.1156 3.218 0.292
14.1228 2.873 0.290
14.1299 2.722 0.289
14.1371 2.783 0.289
14.1442 2.538 0.287
14.1514 2.460 0.287
14.1585 3.035 0.290
14.1656 2.824 0.289
14.1728 2.983 0.290
14.1799 2.113 0.284
14.1871 2.208 0.285
14.1942 2.491 0.286
14.2014 2.719 0.288
14.2085 2.290 0.285
14.2157 2.632 0.287
14.2228 3.172 0.290
14.2300 2.160 0.284
14.2371 3.395 0.291
14.2442 2.358 0.285
14.2514 2.155 0.283
14.2585 2.063 0.283
14.2657 2.360 0.284
14.2728 3.053 0.288
14.2800 2.093 0.282
14.2871 2.515 0.285
14.2943 2.038 0.282
14.3014 1.918 0.281
14.3085 2.365 0.284
14.3157 2.214 0.283
14.3228 2.431 0.284
14.3300 1.971 0.281
14.3371 2.105 0.282
14.3443 2.166 0.282
14.3514 1.866 0.280
14.3586 2.066 0.281
14.3657 1.644 0.278
14.3729 1.931 0.280
14.3800 2.335 0.282
14.3871 2.150 0.281
14.3943 1.850 0.279
14.4014 2.157 0.281
14.4086 2.197 0.281
14.4157 2.078 0.280
14.4229 2.417 0.282
14.4300 1.880 0.279
14.4372 2.039 0.280
14.4443 1.718 0.277
14.4515 1.320 0.275
14.4586 1.513 0.276
14.4657 1.470 0.275
14.4729 1.927 0.278
14.4800 1.818 0.277
14.4872 2.046 0.279
14.4943 1.562 0.276
14.5015 2.102 0.279
14.5086 1.816 0.277
14.5158 2.179 0.279
14.5229 1.865 0.277
14.5300 1.530 0.275
14.5372 1.834 0.277
14.5443 1.392 0.274
14.5515 1.700 0.275
14.5586 1.993 0.277
14.5658 1.363 0.273
14.5729 1.563 0.274
14.5801 1.746 0.275
14.5872 1.779 0.275
14.5944 1.913 0.276
14.6015 1.370 0.273
14.6086 1.501 0.273
14.6158 1.583 0.274
14.6229 1.568 0.273
14.6301 1.671 0.274
14.6372 1.850 0.275
14.6444 1.414 0.272
14.6515 1.510 0.273
14.6587 1.485 0.272
14.6658 1.695 0.273
14.6730 1.225 0.270
14.6801 1.856 0.274
14.6872 1.646 0.273
14.6944 2.027 0.275
14.7015 1.178 0.270
14.7087 1.205 0.270
14.7158 1.349 0.270
14.7230 1.258 0.270
14.7301 1.458 0.271
14.7373 1.127 0.269
14.7444 1.351 0.270
14.7516 1.211 0.269
14.7587 1.265 0.269
14.7658 1.066 0.268
14.7730 1.121 0.268
14.7801 1.123 0.268
14.7873 0.997 0.267
14.7944 1.200 0.268
14.8016 0.956 0.266
14.8087 1.055 0.267
14.8159 1.113 0.267
14.8230 0.963 0.266
14.8301 0.861 0.265
14.8373 0.842 0.265
14.8444 1.008 0.266
14.8516 1.253 0.267
14.8587 1.342 0.268
14.8659 0.730 0.264
14.8730 1.097 0.266
14.8802 1.165 0.266
14.8873 1.490 0.268
14.8945 1.288 0.267
14.9016 0.617 0.262
14.9087 1.102 0.265
14.9159 0.305 0.260
14.9230 1.471 0.267
14.9302 0.501 0.261
14.9373 1.257 0.266
14.9445 0.315 0.259
14.9516 0.814 0.263
14.9588 0.458 0.260
14.9659 0.884 0.263
14.9731 1.008 0.264
14.9802 0.986 0.263
14.9873 0.923 0.263
14.9945 0.522 0.260
15.0016 0.928 0.263
15.0088 0.899 0.262
15.0159 0.880 0.262
15.0231 1.119 0.263
15.0302 0.597 0.260
15.0374 0.995 0.262
15.0445 0.703 0.260
15.0516 0.865 0.261
15.0588 0.558 0.259
15.0659 0.960 0.262
15.0731 0.771 0.260
15.0802 1.010 0.262
15.0874 0.478 0.258
15.0945 0.439 0.258
15.1017 0.785 0.260
15.1088 0.669 0.259
15.1160 0.710 0.259
15.1231 0.473 0.257
15.1302 0.333 0.256
15.1374 0.481 0.257
15.1445 0.647 0.258
15.1517 0.337 0.256
15.1588 0.406 0.256
15.1660 0.641 0.258
15.1731 0.692 0.258
15.1803 1.174 0.261
15.1874 0.822 0.258
15.1946 0.568 0.257
15.2017 1.011 0.259
15.2088 1.215 0.261
15.2160 1.051 0.259
15.2231 0.335 0.254
15.2303 0.570 0.256
15.2374 0.243 0.253
15.2446 0.266 0.254
15.2517 0.491 0.255
15.2589 0.799 0.257
15.2660 0.246 0.253
15.2731 0.443 0.254
15.2803 0.550 0.255
15.2874 0.198 0.252
15.2946 0.343 0.253
15.3017 0.547 0.254
15.3089 0.696 0.255
15.3160 0.601 0.254
15.3232 0.340 0.253
15.3303 0.082 0.251
15.3375 0.703 0.255
15.3446 0.227 0.251
15.3517 0.934 0.256
15.3589 0.437 0.252
15.3660 0.217 0.251
15.3732 -0.256 0.247
15.3803 0.483 0.252
15.3875 0.406 0.252
15.3946 0.263 0.251
15.4018 -0.189 0.247
15.4089 0.525 0.252
15.4161 0.347 0.251
15.4232 -0.289 0.246
15.4303 0.509 0.252
15.4375 0.283 0.250
15.4446 0.223 0.249
15.4518 0.396 0.250
15.4589 -0.185 0.246
15.4661 -0.075 0.247
15.4732 0.022 0.247
15.4804 0.480 0.250
15.4875 0.319 0.249
15.4946 -0.053 0.246
15.5018 -0.161 0.246
15.5089 0.272 0.248
15.5161 0.219 0.248
15.5232 0.323 0.249
15.5304 -0.216 0.245
15.5375 0.426 0.249
15.5447 0.501 0.249
15.5518 0.275 0.248
15.5590 0.417 0.248
15.5661 0.659 0.250
15.5732 0.631 0.250
15.5804 0.418 0.248
15.5875 0.077 0.245
15.5947 0.837 0.251
15.6018 0.392 0.247
15.6090 0.155 0.246
15.6161 0.134 0.245
15.6233 -0.169 0.243
15.6304 -0.242 0.242
15.6376 0.159 0.245
15.6447 0.093 0.245
15.6518 0.078 0.244
15.6590 0.084 0.244
15.6661 0.027 0.244
15.6733 -0.047 0.243
15.6804 0.018 0.244
15.6876 -0.173 0.242
15.6947 -0.088 0.243
15.7019 0.165 0.245
15.7090 0.109 0.244
15.7162 -0.101 0.243
15.7233 0.124 0.244
15.7304 -0.075 0.243
15.7376 0.265 0.245
15.7447 0.087 0.244
15.7519 0.398 0.246
15.7590 0.040 0.243
15.7662 -0.093 0.242
15.7733 -0.385 0.240
15.7805 0.326 0.245
15.7876 -0.175 0.241
15.7947 -0.218 0.241
15.8019 -0.083 0.242
15.8090 0.281 0.244
15.8162 -0.029 0.242
15.8233 -0.169 0.241
15.8305 -0.163 0.241
15.8376 0.020 0.242
15.8448 0.770 0.248
15.8519 0.130 0.243
15.8591 0.188 0.243
15.8662 0.632 0.246
15.8733 0.336 0.244
15.8805 0.186 0.243
15.8876 -0.270 0.240
15.8948 0.250 0.243
15.9019 0.308 0.244
15.9091 0.919 0.248
15.9162 0.689 0.246
15.9234 0.678 0.246
15.9305 1.104 0.249
15.9377 0.923 0.248
15.9448 1.325 0.250
15.9519 1.060 0.249
15.9591 1.695 0.253
15.9662 1.621 0.252
15.9734 1.572 0.252
15.9805 1.575 0.252
15.9877 1.501 0.251
15.9948 2.303 0.257
16.0020 1.962 0.254
16.0091 2.197 0.256
16.0162 2.280 0.256
16.0234 2.432 0.257
16.0305 2.987 0.261
16.0377 2.462 0.257
16.0448 2.513 0.258
16.0520 2.634 0.258
16.0591 3.272 0.263
16.0663 3.626 0.265
16.0734 3.163 0.262
16.0806 3.642 0.265
16.0877 3.454 0.264
16.0948 3.856 0.266
16.1020 3.862 0.266
16.1091 3.758 0.265
16.1163 3.757 0.265
16.1234 4.163 0.268
16.1306 3.398 0.263
16.1377 4.220 0.268
16.1449 3.887 0.266
16.1520 3.709 0.265
16.1592 3.903 0.266
16.1663 4.038 0.267
16.1734 4.065 0.267
16.1806 4.168 0.267
16.1877 3.980 0.266
16.1949 4.025 0.266
16.2020 3.948 0.266
16.2092 4.274 0.268
16.2163 3.957 0.266
16.2235 3.658 0.264
16.2306 4.054 0.266
16.2377 3.682 0.264
16.2449 3.778 0.264
16.2520 3.993 0.266
16.2592 3.413 0.262
16.2663 4.242 0.267
16.2735 3.391 0.261
16.2806 4.009 0.265
16.2878 3.932 0.265
16.2949 3.969 0.265
16.3021 4.420 0.268
16.3092 3.986 0.265
16.3163 4.892 0.271
16.3235 5.294 0.273
16.3306 4.995 0.271
16.3378 5.376 0.274
16.3449 6.341 0.280
16.3521 6.518 0.281
16.3592 6.590 0.281
16.3664 7.128 0.284
16.3735 7.551 0.287
16.3807 8.669 0.293
16.3878 9.884 0.301
16.3949 11.328 0.309
16.4021 12.220 0.314
16.4092 13.109 0.318
16.4164 13.448 0.320
16.4235 15.632 0.332
16.4307 15.580 0.331
16.4378 17.333 0.340
16.4450 18.378 0.346
16.4521 19.277 0.350
16.4593 20.137 0.354
16.4664 21.505 0.361
16.4735 22.071 0.364
16.4807 22.289 0.365
16.4878 26.035 0.382
16.4950 26.316 0.383
16.5021 28.844 0.394
16.5093 32.045 0.408
16.5164 33.857 0.416
16.5236 34.957 0.420
16.5307 36.961 0.429
16.5378 35.946 0.424
16.5450 34.005 0.416
16.5521 31.640 0.406
16.5593 27.553 0.388
16.5664 24.865 0.376
16.5736 22.053 0.363
16.5807 19.813 0.352
16.5879 17.653 0.341
16.5950 17.437 0.340
16.6022 16.364 0.334
16.6093 16.367 0.334
16.6164 16.940 0.337
16.6236 17.714 0.341
16.6307 17.662 0.341
16.6379 16.992 0.337
16.6450 15.738 0.331
16.6522 14.130 0.322
16.6593 12.369 0.312
16.6665 10.442 0.301
16.6736 8.612 0.291
16.6808 7.053 0.281
16.6879 5.379 0.271
16.6950 4.709 0.266
16.7022 4.639 0.266
16.7093 4.070 0.262
16.7165 3.563 0.258
16.7236 2.969 0.254
16.7308 2.840 0.253
16.7379 3.086 0.255
16.7451 2.659 0.252
16.7522 2.784 0.253
16.7593 3.090 0.255
16.7665 2.523 0.251
16.7736 2.523 0.251
16.7808 2.787 0.252
16.7879 2.607 0.251
16.7951 2.502 0.250
16.8022 2.683 0.252
16.8094 2.738 0.252
16.8165 2.728 0.252
16.8237 2.401 0.249
16.8308 2.273 0.248
16.8379 2.182 0.248
16.8451 2.026 0.247
16.8522 2.422 0.249
16.8594 2.915 0.253
16.8665 3.036 0.253
16.8737 2.140 0.247
16.8808 2.856 0.252
16.8880 2.449 0.249
16.8951 2.432 0.249
16.9023 2.998 0.253
16.9094 2.689 0.250
16.9165 2.686 0.250
16.9237 2.606 0.250
16.9308 2.883 0.252
16.9380 3.019 0.252
16.9451 3.088 0.253
16.9523 2.776 0.251
16.9594 3.397 0.255
16.9666 2.522 0.249
16.9737 3.363 0.254
16.9808 3.168 0.253
16.9880 2.908 0.251
16.9951 3.325 0.254
17.0023 3.748 0.257
17.0094 3.582 0.256
17.0166 4.405 0.261
17.0237 4.224 0.260
17.0309 4.061 0.259
17.0380 4.606 0.262
17.0452 4.523 0.262
17.0523 4.902 0.264
17.0594 4.871 0.264
17.0666 5.635 0.269
17.0737 5.940 0.271
17.0809 6.267 0.273
17.0880 7.614 0.281
17.0952 7.423 0.280
17.1023 7.944 0.283
17.1095 9.083 0.290
17.1166 9.056 0.289
17.1238 9.643 0.293
17.1309 9.476 0.292
17.1380 9.355 0.291
17.1452 10.119 0.296
17.1523 9.647 0.293
17.1595 9.418 0.291
17.1666 9.765 0.293
17.1738 9.696 0.293
17.1809 9.634 0.292
17.1881 9.766 0.293
17.1952 10.263 0.296
17.2023 11.287 0.302
17.2095 11.701 0.304
17.2166 11.909 0.305
17.2238 12.875 0.311
17.2309 14.062 0.317
17.2381 14.566 0.320
17.2452 15.341 0.324
17.2524 16.716 0.331
17.2595 16.838 0.332
17.2667 15.911 0.327
17.2738 16.123 0.328
17.2809 14.599 0.320
17.2881 12.248 0.307
17.2952 11.040 0.300
17.3024 8.992 0.287
17.3095 7.402 0.278
17.3167 6.760 0.273
17.3238 6.739 0.273
17.3310 6.247 0.270
17.3381 6.803 0.274
17.3453 7.154 0.276
17.3524 6.626 0.272
17.3595 7.415 0.277
17.3667 7.234 0.276
17.3738 6.648 0.272
17.3810 6.464 0.271
17.3881 5.944 0.268
17.3953 4.729 0.259
17.4024 3.830 0.253
17.4096 2.761 0.246
17.4167 2.459 0.244
17.4239 1.831 0.239
17.4310 1.870 0.239
17.4381 1.564 0.237
17.4453 1.655 0.237
17.4524 1.128 0.233
17.4596 0.531 0.229
17.4667 0.333 0.227
17.4739 0.567 0.229
17.4810 0.272 0.227
17.4882 0.550 0.229
17.4953 0.412 0.228
17.5024 0.766 0.230
17.5096 -0.011 0.224
17.5167 0.170 0.226
17.5239 -0.048 0.224
17.5310 0.452 0.228
17.5382 -0.006 0.224
17.5453 0.338 0.226
17.5525 0.603 0.228
17.5596 0.197 0.225
17.5668 0.496 0.227
17.5739 0.142 0.225
17.5810 0.782 0.229
17.5882 0.088 0.224
17.5953 0.616 0.228
17.6025 0.356 0.226
17.6096 0.204 0.225
17.6168 0.159 0.224
17.6239 0.441 0.226
17.6311 -0.020 0.223
17.6382 0.355 0.226
17.6454 0.238 0.225
17.6525 0.620 0.227
17.6596 0.312 0.225
17.6668 0.562 0.227
17.6739 -0.010 0.222
17.6811 0.029 0.222
17.6882 0.415 0.225
17.6954 0.315 0.225
17.7025 0.715 0.228
17.7097 0.281 0.224
17.7168 -0.010 0.222
17.7239 -0.204 0.220
17.7311 0.227 0.223
17.7382 0.336 0.224
17.7454 0.246 0.223
17.7525 0.556 0.226
17.7597 0.397 0.224
17.7668 0.071 0.222
17.7740 0.363 0.224
17.7811 0.253 0.223
17.7883 0.371 0.224
17.7954 0.098 0.222
17.8025 0.470 0.224
17.8097 -0.227 0.219
17.8168 -0.032 0.220
17.8240 0.152 0.222
17.8311 0.545 0.225
17.8383 -0.096 0.220
17.8454 0.536 0.224
17.8526 0.433 0.224
17.8597 0.173 0.221
17.8669 -0.038 0.220
17.8740 0.171 0.221
17.8811 0.655 0.225
17.8883 0.027 0.220
17.8954 0.569 0.224
17.9026 0.511 0.224
17.9097 0.314 0.222
17.9169 0.200 0.221
17.9240 -0.004 0.219
17.9312 -0.215 0.217
17.9383 0.049 0.219
17.9454 -0.054 0.219
17.9526 0.280 0.221
17.9597 -0.039 0.219
17.9669 0.316 0.221
17.9740 0.039 0.219
17.9812 0.269 0.221
17.9883 0.270 0.221
17.9955 0.215 0.220
18.0026 0.004 0.218
18.0098 0.370 0.221
18.0169 0.339 0.221
18.0240 -0.004 0.218
18.0312 0.181 0.219
18.0383 -0.162 0.217
18.0455 0.093 0.219
18.0526 0.472 0.221
18.0598 0.022 0.218
18.0669 -0.096 0.217
18.0741 -0.057 0.217
18.0812 0.222 0.219
18.0884 0.403 0.220
18.0955 0.217 0.219
18.1026 0.027 0.217
18.1098 0.625 0.222
18.1169 -0.003 0.217
18.1241 0.498 0.221
18.1312 0.305 0.219
18.1384 0.302 0.219
18.1455 -0.069 0.216
18.1527 -0.134 0.215
18.1598 0.051 0.217
18.1670 0.056 0.217
18.1741 0.470 0.220
18.1812 0.294 0.218
18.1884 0.020 0.216
18.1955 0.497 0.220
18.2027 0.286 0.218
18.2098 -0.057 0.215
18.2170 0.340 0.218
18.2241 0.050 0.216
18.2313 0.297 0.218
18.2384 0.083 0.216
18.2455 0.139 0.216
18.2527 0.606 0.220
18.2598 0.075 0.216
18.2670 -0.174 0.214
18.2741 0.331 0.218
18.2813 0.485 0.219
18.2884 0.121 0.216
18.2956 0.282 0.217
18.3027 -0.047 0.214
18.3099 -0.213 0.213
18.3170 -0.163 0.213
18.3241 -0.086 0.214
18.3313 0.169 0.215
18.3384 0.020 0.214
18.3456 0.254 0.216
18.3527 0.231 0.216
18.3599 0.187 0.215
18.3670 0.285 0.216
18.3742 -0.093 0.213
18.3813 0.089 0.214
18.3885 0.097 0.214
18.3956 0.278 0.216
18.4027 0.088 0.214
18.4099 -0.098 0.212
18.4170 -0.062 0.212
18.4242 0.286 0.215
18.4313 -0.081 0.212
18.4385 0.441 0.216
18.4456 0.230 0.214
18.4528 0.363 0.215
18.4599 0.149 0.214
18.4670 -0.416 0.209
18.4742 0.023 0.212
18.4813 -0.087 0.211
18.4885 0.125 0.213
18.4956 -0.019 0.212
18.5028 0.315 0.214
18.5099 0.184 0.213
18.5171 0.248 0.214
18.5242 0.235 0.214
18.5314 0.014 0.212
18.5385 -0.051 0.211
18.5456 0.197 0.213
18.5528 0.462 0.215
18.5599 -0.103 0.210
18.5671 -0.262 0.209
18.5742 0.188 0.212
18.5814 0.050 0.211
18.5885 0.412 0.214
18.5957 -0.250 0.209
18.6028 0.105 0.211
18.6100 0.159 0.212
18.6171 -0.066 0.210
18.6242 0.078 0.211
18.6314 -0.119 0.209
18.6385 -0.045 0.210
18.6457 -0.134 0.209
18.6528 -0.161 0.209
18.6600 0.292 0.212
18.6671 0.241 0.212
18.6743 0.128 0.211
18.6814 0.039 0.210
18.6885 0.057 0.210
18.6957 -0.049 0.209
18.7028 0.383 0.212
18.7100 -0.244 0.207
18.7171 0.160 0.210
18.7243 -0.207 0.207
18.7314 -0.212 0.207
18.7386 0.373 0.212
18.7457 -0.003 0.209
18.7529 0.187 0.210
18.7600 0.258 0.211
18.7671 0.087 0.209
18.7743 0.030 0.209
18.7814 -0.006 0.208
18.7886 -0.226 0.206
18.7957 0.158 0.209
18.8029 -0.041 0.208
18.8100 0.312 0.211
18.8172 0.102 0.209
18.8243 0.216 0.210
18.8315 -0.063 0.207
18.8386 0.314 0.210
18.8457 -0.292 0.205
18.8529 -0.095 0.207
18.8600 0.383 0.211
18.8672 0.344 0.210
18.8743 0.099 0.208
18.8815 0.400 0.211
18.8886 -0.303 0.205
18.8958 0.064 0.208
18.9029 0.164 0.208
18.9100 0.420 0.210
18.9172 -0.116 0.206
18.9243 -0.052 0.206
18.9315 0.482 0.211
18.9386 -0.130 0.206
18.9458 -0.156 0.205
18.9529 0.065 0.207
18.9601 -0.165 0.205
18.9672 0.153 0.208
18.9744 0.159 0.208
18.9815 -0.120 0.205
18.9886 -0.048 0.206
18.9958 -0.265 0.204
19.0029 0.179 0.207
19.0101 0.039 0.206
19.0172 -0.140 0.205
19.0244 -0.286 0.203
19.0315 0.142 0.207
19.0387 0.040 0.206
19.0458 -0.011 0.205
19.0530 0.046 0.206
19.0601 0.197 0.207
19.0672 -0.027 0.205
19.0744 0.010 0.205
19.0815 -0.127 0.204
19.0887 0.128 0.206
19.0958 -0.211 0.203
19.1030 0.447 0.209
19.1101 0.015 0.205
19.1173 0.305 0.207
19.1244 0.122 0.206
19.1316 0.259 0.207
19.1387 0.067 0.205
19.1458 0.197 0.206
19.1530 0.501 0.209
19.1601 0.002 0.204
19.1673 0.494 0.208
19.1744 0.592 0.209
19.1816 0.209 0.206
19.1887 0.565 0.209
19.1959 0.500 0.208
19.2030 0.575 0.209
19.2101 0.490 0.208
19.2173 0.631 0.209
19.2244 1.018 0.212
19.2316 0.982 0.212
19.2387 0.831 0.210
19.2459 1.284 0.214
19.2530 1.348 0.215
19.2602 1.565 0.216
19.2673 2.164 0.221
19.2745 1.763 0.218
19.2816 2.254 0.221
19.2887 2.225 0.221
19.2959 2.098 0.220
19.3030 2.673 0.225
19.3102 3.172 0.228
19.3173 2.955 0.227
19.3245 3.929 0.234
19.3316 4.424 0.237
19.3388 4.471 0.238
19.3459 4.580 0.238
19.3531 5.287 0.243
19.3602 5.407 0.244
19.3673 6.103 0.249
19.3745 6.192 0.250
19.3816 6.249 0.250
19.3888 6.689 0.253
19.3959 7.010 0.255
19.4031 6.866 0.254
19.4102 7.139 0.256
19.4174 7.290 0.257
19.4245 7.219 0.256
19.4316 7.398 0.257
19.4388 7.337 0.257
19.4459 7.426 0.257
19.4531 7.709 0.259
19.4602 8.315 0.263
19.4674 8.119 0.262
19.4745 8.215 0.263
19.4817 8.415 0.264
19.4888 8.993 0.267
19.4960 9.200 0.269
19.5031 9.160 0.268
19.5102 9.267 0.269
19.5174 9.303 0.269
19.5245 8.975 0.267
19.5317 10.214 0.275
19.5388 9.497 0.270
19.5460 9.915 0.273
19.5531 9.727 0.272
19.5603 9.489 0.270
19.5674 9.595 0.271
19.5746 9.500 0.270
19.5817 9.530 0.270
19.5888 9.358 0.269
19.5960 9.739 0.271
19.6031 9.480 0.270
19.6103 9.291 0.268
19.6174 8.971 0.266
19.6246 9.372 0.269
19.6317 8.742 0.265
19.6389 8.942 0.266
19.6460 8.809 0.265
19.6531 9.033 0.266
19.6603 9.327 0.268
19.6674 9.746 0.271
19.6746 9.178 0.267
19.6817 8.930 0.266
19.6889 9.050 0.266
19.6960 9.813 0.271
19.7032 10.600 0.276
19.7103 10.567 0.276
19.7175 10.806 0.277
19.7246 11.453 0.281
19.7317 12.053 0.285
19.7389 13.065 0.291
19.7460 13.818 0.295
19.7532 14.587 0.300
19.7603 15.009 0.302
19.7675 16.900 0.313
19.7746 18.344 0.321
19.7818 19.273 0.326
19.7889 21.338 0.336
19.7961 23.697 0.348
19.8032 24.880 0.354
19.8103 27.681 0.367
19.8175 29.315 0.375
19.8246 31.328 0.384
19.8318 33.063 0.392
19.8389 35.672 0.403
19.8461 37.435 0.411
19.8532 38.955 0.417
19.8604 40.863 0.425
19.8675 42.629 0.432
19.8747 45.159 0.442
19.8818 47.610 0.452
19.8889 50.803 0.464
19.8961 53.972 0.475
19.9032 57.221 0.487
19.9104 60.664 0.499
19.9175 65.020 0.514
19.9247 66.700 0.520
19.9318 67.473 0.522
19.9390 66.100 0.518
19.9461 64.033 0.511
19.9532 60.438 0.498
19.9604 56.381 0.484
19.9675 51.516 0.466
19.9747 46.320 0.446
19.9818 42.326 0.430
19.9890 37.731 0.411
19.9961 35.389 0.401
20.0033 32.965 0.391
20.0104 31.905 0.386
20.0176 31.115 0.382
20.0247 31.496 0.384
20.0318 31.373 0.383
20.0390 31.699 0.385
20.0461 31.843 0.385
20.0533 30.999 0.381
20.0604 29.914 0.376
20.0676 28.552 0.370
20.0747 25.766 0.357
20.0819 22.713 0.341
20.0890 19.688 0.326
20.0962 16.423 0.308
20.1033 13.439 0.290
20.1104 11.278 0.277
20.1176 8.763 0.261
20.1247 7.919 0.255
20.1319 5.810 0.240
20.1390 5.628 0.239
20.1462 4.721 0.232
20.1533 3.699 0.224
20.1605 3.205 0.220
20.1676 2.562 0.215
20.1747 2.425 0.214
20.1819 2.140 0.211
20.1890 1.934 0.210
20.1962 1.520 0.206
20.2033 1.571 0.206
20.2105 1.629 0.207
20.2176 1.003 0.201
20.2248 1.318 0.204
20.2319 1.716 0.207
20.2391 0.806 0.199
20.2462 0.950 0.201
20.2533 0.939 0.200
20.2605 0.747 0.199
20.2676 0.555 0.197
20.2748 0.738 0.198
20.2819 0.599 0.197
20.2891 0.292 0.194
20.2962 0.746 0.198
20.3034 0.242 0.194
20.3105 0.404 0.195
20.3177 0.455 0.195
20.3248 0.375 0.195
20.3319 0.877 0.199
20.3391 0.460 0.195
20.3462 0.420 0.195
20.3534 0.607 0.196
20.3605 0.526 0.196
20.3677 0.446 0.195
20.3748 0.608 0.196
20.3820 0.524 0.195
20.3891 0.148 0.192
20.3962 0.307 0.193
20.4034 0.681 0.196
20.4105 0.340 0.193
20.4177 0.200 0.192
20.4248 0.015 0.190
20.4320 0.240 0.192
20.4391 0.142 0.191
20.4463 0.079 0.190
20.4534 0.127 0.191
20.4606 0.348 0.193
20.4677 0.386 0.193
20.4748 0.302 0.192
20.4820 0.113 0.190
20.4891 0.151 0.191
20.4963 -0.083 0.188
20.5034 0.365 0.192
20.5106 0.107 0.190
20.5177 0.231 0.191
20.5249 0.359 0.192
20.5320 -0.052 0.188
20.5392 -0.233 0.186
20.5463 0.357 0.192
20.5534 0.068 0.189
20.5606 0.053 0.189
20.5677 0.271 0.191
20.5749 -0.209 0.186
20.5820 0.176 0.190
20.5892 0.266 0.190
20.5963 0.268 0.190
20.6035 0.198 0.190
20.6106 0.111 0.189
20.6177 0.294 0.190
20.6249 0.155 0.189
20.6320 -0.068 0.187
20.6392 -0.003 0.187
20.6463 0.087 0.188
20.6535 0.180 0.189
20.6606 0.051 0.188
20.6678 0.144 0.188
20.6749 -0.319 0.184
20.6821 0.163 0.188
20.6892 0.034 0.187
20.6963 0.110 0.188
20.7035 0.085 0.187
20.7106 0.099 0.187
20.7178 0.046 0.187
20.7249 0.038 0.187
20.7321 -0.184 0.184
20.7392 -0.102 0.185
20.7464 -0.023 0.186
20.7535 0.498 0.190
20.7607 -0.135 0.185
20.7678 -0.149 0.184
20.7749 0.152 0.187
20.7821 -0.113 0.184
20.7892 -0.183 0.184
20.7964 -0.076 0.185
20.8035 -0.250 0.183
20.8107 0.139 0.186
20.8178 0.117 0.186
20.8250 -0.151 0.184
20.8321 0.189 0.187
20.8393 -0.218 0.183
20.8464 0.070 0.185
20.8535 -0.188 0.183
20.8607 -0.063 0.184
20.8678 0.002 0.184
20.8750 -0.141 0.183
20.8821 0.018 0.184
20.8893 -0.024 0.184
20.8964 0.212 0.186
20.9036 0.173 0.186
20.9107 0.051 0.184
20.9178 -0.280 0.181
20.9250 -0.050 0.183
20.9321 -0.120 0.183
20.9393 -0.054 0.183
20.9464 0.435 0.188
20.9536 0.022 0.184
20.9607 0.109 0.184
20.9679 -0.252 0.181
20.9750 0.053 0.184
20.9822 0.223 0.185
20.9893 -0.280 0.180
20.9964 0.070 0.184
21.0036 -0.135 0.182
21.0107 -0.152 0.181
21.0179 0.063 0.183
21.0250 0.112 0.184
21.0322 0.327 0.186
21.0393 0.007 0.183
21.0465 0.355 0.186
21.0536 0.452 0.187
21.0608 0.070 0.183
21.0679 0.539 0.187
21.0750 0.115 0.183
21.0822 0.348 0.186
21.0893 0.393 0.186
21.0965 0.691 0.189
21.1036 0.716 0.189
21.1108 0.563 0.187
21.1179 0.705 0.189
21.1251 0.618 0.188
21.1322 0.983 0.191
21.1393 1.108 0.192
21.1465 0.733 0.189
21.1536 1.192 0.193
21.1608 0.966 0.191
21.1679 1.119 0.192
21.1751 0.758 0.189
21.1822 0.956 0.190
21.1894 1.171 0.192
21.1965 1.411 0.194
21.2037 0.713 0.188
21.2108 1.144 0.192
21.2179 0.967 0.190
21.2251 1.272 0.193
21.2322 1.304 0.193
21.2394 1.408 0.194
21.2465 1.818 0.197
21.2537 1.526 0.195
21.2608 1.193 0.192
21.2680 1.443 0.194
21.2751 1.447 0.194
21.2823 1.245 0.192
21.2894 1.687 0.196
21.2965 1.142 0.191
21.3037 1.711 0.196
21.3108 1.798 0.197
21.3180 1.819 0.197
21.3251 1.840 0.197
21.3323 1.667 0.195
21.3394 1.664 0.195
21.3466 1.438 0.193
21.3537 2.164 0.200
21.3608 1.685 0.195
21.3680 1.737 0.196
21.3751 1.935 0.197
21.3823 1.502 0.193
21.3894 2.099 0.199
21.3966 2.228 0.200
21.4037 1.624 0.194
21.4109 1.350 0.192
21.4180 1.555 0.194
21.4252 1.423 0.192
21.4323 1.361 0.192
21.4394 1.639 0.194
21.4466 1.532 0.193
21.4537 1.761 0.195
21.4609 1.859 0.196
21.4680 1.633 0.194
21.4752 1.685 0.194
21.4823 1.814 0.195
21.4895 1.946 0.196
21.4966 1.832 0.195
21.5038 1.676 0.194
21.5109 1.840 0.195
21.5180 2.437 0.200
21.5252 2.361 0.200
21.5323 2.507 0.201
21.5395 2.334 0.199
21.5466 2.859 0.204
21.5538 2.859 0.204
21.5609 3.425 0.208
21.5681 3.530 0.209
21.5752 3.655 0.210
21.5824 3.687 0.210
21.5895 4.097 0.214
21.5966 4.729 0.219
21.6038 4.907 0.220
21.6109 5.470 0.224
21.6181 5.692 0.226
21.6252 6.304 0.231
21.6324 6.228 0.230
21.6395 6.458 0.232
21.6467 6.798 0.234
21.6538 7.340 0.238
21.6609 7.764 0.241
21.6681 8.303 0.245
21.6752 8.505 0.246
21.6824 8.620 0.247
21.6895 9.613 0.254
21.6967 9.985 0.256
21.7038 10.850 0.262
21.7110 11.559 0.267
21.7181 12.271 0.271
21.7253 12.654 0.274
21.7324 12.477 0.273
21.7395 11.936 0.269
21.7467 12.357 0.272
21.7538 10.691 0.261
21.7610 9.410 0.252
21.7681 8.858 0.248
21.7753 8.137 0.243
21.7824 7.147 0.236
21.7896 6.158 0.228
21.7967 5.996 0.227
21.8039 5.843 0.226
21.8110 5.278 0.221
21.8181 5.720 0.225
21.8253 5.727 0.225
21.8324 5.353 0.222
21.8396 5.721 0.225
21.8467 5.461 0.222
21.8539 5.639 0.224
21.8610 5.949 0.226
21.8682 5.776 0.225
21.8753 5.419 0.222
21.8824 4.763 0.217
21.8896 4.298 0.213
21.8967 3.632 0.207
21.9039 3.011 0.202
21.9110 2.203 0.195
21.9182 2.054 0.193
21.9253 1.662 0.190
21.9325 1.382 0.187
21.9396 1.164 0.185
21.9468 1.001 0.183
21.9539 0.752 0.181
21.9610 0.749 0.181
21.9682 0.399 0.177
21.9753 0.584 0.179
21.9825 0.345 0.177
21.9896 0.241 0.176
21.9968 0.356 0.177
22.0039 0.774 0.181
22.0111 -0.028 0.173
22.0182 0.251 0.175
22.0254 0.377 0.177
22.0325 0.148 0.174
22.0396 0.038 0.173
22.0468 0.257 0.175
22.0539 0.064 0.173
22.0611 0.238 0.175
22.0682 0.624 0.179
22.0754 0.045 0.173
22.0825 0.480 0.177
22.0897 -0.075 0.171
22.0968 0.210 0.174
22.1039 -0.126 0.171
22.1111 0.198 0.174
22.1182 0.445 0.176
22.1254 -0.005 0.172
22.1325 -0.064 0.171
22.1397 -0.181 0.170
22.1468 0.264 0.174
22.1540 0.001 0.171
22.1611 0.162 0.173
22.1683 0.374 0.175
22.1754 0.184 0.173
22.1825 0.015 0.171
22.1897 0.509 0.176
22.1968 0.062 0.172
22.2040 0.132 0.172
22.2111 0.112 0.172
22.2183 0.179 0.173
22.2254 -0.095 0.170
22.2326 -0.087 0.170
22.2397 0.067 0.171
22.2469 0.335 0.174
22.2540 0.075 0.171
22.2611 0.097 0.171
22.2683 -0.051 0.170
22.2754 -0.175 0.168
22.2826 0.054 0.171
22.2897 0.288 0.173
22.2969 0.250 0.172
22.3040 -0.013 0.170
22.3112 -0.033 0.169
22.3183 0.245 0.172
22.3254 -0.032 0.169
22.3326 0.035 0.170
22.3397 0.139 0.171
22.3469 0.050 0.170
22.3540 0.241 0.172
22.3612 0.148 0.171
22.3683 -0.011 0.169
22.3755 0.473 0.174
22.3826 0.015 0.169
22.3898 -0.266 0.166
22.3969 0.044 0.169
22.4040 -0.118 0.167
22.4112 -0.034 0.168
22.4183 -0.030 0.168
22.4255 0.287 0.171
22.4326 0.329 0.172
22.4398 0.066 0.169
22.4469 -0.131 0.167
22.4541 0.307 0.171
22.4612 0.224 0.170
22.4684 0.111 0.169
22.4755 0.052 0.168
22.4826 -0.065 0.167
22.4898 -0.082 0.167
22.4969 0.343 0.171
22.5041 0.059 0.168
22.5112 0.053 0.168
22.5184 0.234 0.170
22.5255 0.367 0.171
22.5327 0.128 0.169
22.5398 0.021 0.167
22.5470 0.095 0.168
22.5541 0.391 0.171
22.5612 0.524 0.172
22.5684 0.090 0.168
22.5755 0.053 0.167
22.5827 -0.012 0.167
22.5898 0.096 0.168
22.5970 0.194 0.169
22.6041 0.091 0.167
22.6113 0.363 0.170
22.6184 0.343 0.170
22.6255 0.316 0.169
22.6327 0.240 0.169
22.6398 0.554 0.172
22.6470 -0.036 0.166
22.6541 0.247 0.168
22.6613 0.275 0.169
22.6684 0.182 0.168
22.6756 -0.140 0.164
22.6827 -0.038 0.165
22.6899 -0.166 0.164
22.6970 0.332 0.169
22.7041 0.187 0.167
22.7113 0.014 0.165
22.7184 0.369 0.169
22.7256 -0.154 0.163
22.7327 0.392 0.169
22.7399 -0.201 0.163
22.7470 0.529 0.170
22.7542 0.329 0.168
22.7613 0.049 0.165
22.7685 -0.089 0.164
22.7756 -0.227 0.162
22.7827 0.093 0.165
22.7899 0.164 0.166
22.7970 0.036 0.165
22.8042 0.312 0.167
22.8113 -0.107 0.163
22.8185 0.140 0.165
22.8256 0.027 0.164
22.8328 -0.156 0.162
22.8399 0.098 0.165
22.8470 -0.144 0.162
22.8542 0.104 0.165
22.8613 0.223 0.166
22.8685 -0.068 0.163
22.8756 0.027 0.164
22.8828 0.115 0.164
22.8899 -0.075 0.162
22.8971 -0.005 0.163
22.9042 -0.101 0.162
22.9114 -0.141 0.161
22.9185 0.162 0.165
22.9256 0.284 0.166
22.9328 -0.173 0.161
22.9399 0.040 0.163
22.9471 0.187 0.164
22.9542 0.087 0.163
22.9614 -0.106 0.161
22.9685 -0.112 0.161
22.9757 0.313 0.165
22.9828 -0.214 0.160
22.9900 0.110 0.163
22.9971 0.077 0.163
23.0042 0.116 0.163
23.0114 -0.028 0.161
23.0185 -0.131 0.160
23.0257 0.345 0.165
23.0328 0.027 0.162
23.0400 0.192 0.163
23.0471 0.033 0.162
23.0543 -0.084 0.160
23.0614 0.219 0.163
23.0685 0.078 0.162
23.0757 -0.056 0.160
23.0828 0.272 0.164
23.0900 0.051 0.161
23.0971 0.246 0.163
23.1043 0.025 0.161
23.1114 0.030 0.161
23.1186 0.083 0.161
23.1257 0.060 0.161
23.1329 0.187 0.162
23.1400 0.101 0.161
23.1471 0.043 0.160
23.1543 0.281 0.163
23.1614 -0.065 0.159
23.1686 0.290 0.163
23.1757 -0.097 0.159
23.1829 -0.041 0.159
23.1900 0.148 0.161
23.1972 0.153 0.161
23.2043 -0.127 0.158
23.2115 0.024 0.159
23.2186 -0.055 0.159
23.2257 -0.043 0.159
23.2329 0.375 0.163
23.2400 0.043 0.159
23.2472 -0.018 0.159
23.2543 0.209 0.161
23.2615 0.033 0.159
23.2686 0.086 0.159
23.2758 -0.214 0.156
23.2829 -0.074 0.157
23.2901 0.198 0.160
23.2972 0.057 0.159
23.3043 0.246 0.161
23.3115 0.108 0.159
23.3186 0.124 0.159
23.3258 -0.191 0.156
23.3329 -0.023 0.157
23.3401 -0.067 0.157
23.3472 0.161 0.159
23.3544 0.297 0.161
23.3615 -0.201 0.155
23.3686 0.102 0.158
23.3758 -0.011 0.157
23.3829 -0.204 0.155
23.3901 0.103 0.158
23.3972 0.407 0.161
23.4044 -0.002 0.157
23.4115 0.139 0.158
23.4187 -0.127 0.155
23.4258 0.169 0.158
23.4330 0.529 0.162
23.4401 -0.178 0.154
23.4472 0.014 0.156
23.4544 0.224 0.159
23.4615 -0.021 0.156
23.4687 -0.117 0.155
23.4758 0.354 0.160
23.4830 -0.155 0.154
23.4901 -0.154 0.154
23.4973 -0.249 0.153
23.5044 0.233 0.158
23.5116 0.193 0.158
23.5187 0.015 0.156
23.5258 0.208 0.158
23.5330 0.026 0.156
23.5401 0.095 0.156
23.5473 -0.125 0.154
23.5544 0.200 0.157
23.5616 0.095 0.156
23.5687 0.295 0.158
23.5759 0.189 0.157
23.5830 -0.388 0.150
23.5901 -0.125 0.153
23.5973 -0.088 0.154
23.6044 -0.017 0.154
23.6116 -0.164 0.153
23.6187 0.158 0.156
23.6259 0.018 0.155
23.6330 0.142 0.156
23.6402 0.037 0.155
23.6473 0.043 0.155
23.6545 0.090 0.155
23.6616 0.412 0.159
23.6687 0.064 0.155
23.6759 -0.142 0.152
23.6830 0.089 0.155
23.6902 0.248 0.157
23.6973 0.032 0.154
23.7045 0.412 0.158
23.7116 0.418 0.158
23.7188 0.070 0.154
23.7259 0.177 0.155
23.7331 -0.088 0.152
23.7402 0.206 0.156
23.7473 0.257 0.156
23.7545 0.020 0.153
23.7616 0.192 0.155
23.7688 0.139 0.155
23.7759 -0.178 0.151
23.7831 0.491 0.158
23.7902 0.296 0.156
23.7974 0.041 0.153
23.8045 0.172 0.155
23.8116 0.151 0.154
23.8188 0.132 0.154
23.8259 0.253 0.155
23.8331 -0.120 0.151
23.8402 0.286 0.156
23.8474 0.219 0.155
23.8545 -0.175 0.150
23.8617 0.262 0.155
23.8688 0.032 0.152
23.8760 0.187 0.154
23.8831 0.169 0.154
23.8902 -0.141 0.150
23.8974 0.056 0.152
23.9045 0.343 0.156
23.9117 0.682 0.159
23.9188 0.359 0.156
23.9260 -0.187 0.149
23.9331 0.142 0.153
23.9403 0.283 0.155
23.9474 -0.117 0.150
23.9546 -0.260 0.148
23.9617 0.115 0.153
23.9688 0.439 0.156
23.9760 0.138 0.153
23.9831 0.014 0.151
23.9903 0.244 0.154
23.9974 0.047 0.152
24.0046 -0.126 0.150
24.0117 -0.014 0.151
24.0189 0.174 0.153
24.0260 0.151 0.153
24.0331 -0.216 0.149
24.0403 0.205 0.153
24.0474 0.209 0.154
24.0546 0.453 0.156
24.0617 0.006 0.151
24.0689 0.114 0.152
24.0760 0.018 0.151
24.0832 0.269 0.154
24.0903 0.273 0.154
24.0975 0.243 0.154
24.1046 0.272 0.154
24.1117 0.255 0.154
24.1189 0.222 0.154
24.1260 -0.316 0.147
24.1332 0.067 0.152
24.1403 0.179 0.153
24.1475 0.277 0.154
24.1546 -0.100 0.150
24.1618 0.300 0.154
24.1689 0.298 0.154
24.1761 -0.021 0.151
24.1832 0.446 0.156
24.1903 0.339 0.155
24.1975 0.260 0.154
24.2046 0.074 0.152
24.2118 0.259 0.154
24.2189 -0.039 0.150
24.2261 0.024 0.151
24.2332 0.019 0.151
24.2404 0.197 0.153
24.2475 -0.084 0.150
24.2547 0.053 0.151
24.2618 -0.116 0.149
24.2689 0.034 0.151
24.2761 -0.013 0.151
24.2832 0.370 0.155
24.2904 0.315 0.154
24.2975 -0.160 0.149
24.3047 0.067 0.152
24.3118 0.006 0.151
24.3190 0.056 0.151
24.3261 0.102 0.152
24.3332 0.270 0.154
24.3404 0.191 0.153
24.3475 0.220 0.153
24.3547 0.332 0.154
24.3618 -0.070 0.150
24.3690 0.098 0.152
24.3761 -0.015 0.150
24.3833 -0.198 0.148
24.3904 0.063 0.151
24.3976 0.047 0.151
24.4047 0.111 0.152
24.4118 0.136 0.152
24.4190 -0.005 0.150
24.4261 0.413 0.155
24.4333 0.167 0.152
24.4404 0.189 0.153
24.4476 0.000 0.150
24.4547 -0.041 0.150
24.4619 0.165 0.152
24.4690 0.024 0.151
24.4762 0.091 0.151
24.4833 0.151 0.152
24.4904 0.232 0.153
24.4976 0.147 0.152
24.5047 0.301 0.154
24.5119 0.201 0.153
24.5190 0.255 0.153
24.5262 0.332 0.154
24.5333 0.143 0.152
24.5405 0.415 0.155
24.5476 -0.087 0.149
24.5547 -0.062 0.150
24.5619 0.106 0.151
24.5690 0.142 0.152
24.5762 0.154 0.152
24.5833 0.082 0.151
24.5905 0.236 0.153
24.5976 -0.099 0.149
24.6048 -0.008 0.150
24.6119 -0.066 0.149
24.6191 0.023 0.150
24.6262 0.086 0.151
24.6333 -0.148 0.148
24.6405 -0.100 0.149
24.6476 0.188 0.152
24.6548 0.042 0.151
24.6619 0.340 0.154
24.6691 0.281 0.153
24.6762 0.086 0.151
24.6834 0.221 0.153
24.6905 -0.213 0.148
24.6977 -0.036 0.150
24.7048 -0.002 0.150
24.7119 0.304 0.154
24.7191 0.033 0.151
24.7262 0.234 0.153
24.7334 0.119 0.152
24.7405 -0.086 0.149
24.7477 0.188 0.152
24.7548 0.306 0.154
24.7620 0.032 0.151
24.7691 0.285 0.153
24.7762 0.021 0.150
24.7834 -0.292 0.147
24.7905 0.264 0.153
24.7977 0.156 0.152
24.8048 -0.150 0.148
24.8120 0.350 0.154
24.8191 -0.029 0.150
24.8263 0.086 0.151
24.8334 0.054 0.151
24.8406 -0.116 0.149
24.8477 -0.123 0.149
24.8548 -0.026 0.150
24.8620 -0.082 0.149
24.8691 0.210 0.153
24.8763 0.179 0.152
24.8834 -0.023 0.150
24.8906 0.033 0.151
24.8977 0.099 0.151
24.9049 0.092 0.151
24.9120 -0.127 0.149
24.9192 0.057 0.151
24.9263 0.182 0.152
24.9334 0.192 0.152
24.9406 -0.183 0.148
24.9477 -0.027 0.150
24.9549 -0.200 0.148
24.9620 0.358 0.154
24.9692 0.060 0.151
24.9763 -0.023 0.150
24.9835 -0.103 0.149
24.9906 -0.034 0.150
24.9978 0.199 0.152
25.0049 0.029 0.151
25.0120 0.036 0.151
25.0192 -0.076 0.149
25.0263 0.226 0.153
25.0335 -0.190 0.148
25.0406 -0.148 0.148
25.0478 0.040 0.151
25.0549 0.205 0.153
25.0621 -0.082 0.149
25.0692 -0.153 0.148
25.0763 0.313 0.154
25.0835 0.089 0.151
25.0906 -0.111 0.149
25.0978 0.265 0.153
25.1049 -0.303 0.147
25.1121 0.195 0.153
25.1192 0.124 0.152
25.1264 0.292 0.154
25.1335 0.001 0.151
25.1407 0.204 0.153
25.1478 0.157 0.152
25.1549 0.155 0.152
25.1621 0.372 0.155
25.1692 -0.005 0.151
25.1764 0.038 0.151
25.1835 0.244 0.153
25.1907 0.263 0.154
25.1978 0.146 0.152
25.2050 0.248 0.154
25.2121 -0.115 0.149
25.2193 0.272 0.154
25.2264 0.145 0.152
25.2335 0.685 0.159
25.2407 0.468 0.156
25.2478 0.313 0.154
25.2550 0.519 0.157
25.2621 0.510 0.157
25.2693 0.731 0.159
25.2764 0.604 0.158
25.2836 0.626 0.158
25.2907 0.405 0.156
25.2978 1.042 0.163
25.3050 0.766 0.160
25.3121 0.952 0.162
25.3193 1.050 0.163
25.3264 0.986 0.162
25.3336 0.974 0.162
25.3407 1.003 0.162
25.3479 1.418 0.167
25.3550 0.958 0.162
25.3622 1.112 0.163
25.3693 1.613 0.169
25.3764 1.198 0.164
25.3836 1.339 0.166
25.3907 1.500 0.168
25.3979 1.620 0.169
25.4050 1.285 0.165
25.4122 1.498 0.168
25.4193 1.642 0.169
25.4265 1.224 0.165
25.4336 1.711 0.170
25.4408 1.758 0.170
25.4479 1.819 0.171
25.4550 1.890 0.172
25.4622 1.728 0.170
25.4693 1.824 0.171
25.4765 1.867 0.172
25.4836 1.969 0.173
25.4908 1.916 0.172
25.4979 1.820 0.171
25.5051 1.693 0.170
25.5122 1.941 0.172
25.5193 1.881 0.172
25.5265 1.678 0.170
25.5336 2.016 0.173
25.5408 2.115 0.174
25.5479 1.863 0.172
25.5551 2.195 0.175
25.5622 1.999 0.173
25.5694 1.851 0.172
25.5765 2.141 0.175
25.5837 1.868 0.172
25.5908 1.888 0.172
25.5979 2.042 0.174
25.6051 2.572 0.179
25.6122 2.306 0.176
25.6194 1.749 0.171
25.6265 1.876 0.172
25.6337 2.138 0.175
25.6408 2.084 0.174
25.6480 1.808 0.171
25.6551 2.095 0.174
25.6623 2.298 0.176
25.6694 2.171 0.175
25.6765 2.458 0.178
25.6837 2.421 0.178
25.6908 2.402 0.177
25.6980 2.692 0.180
25.7051 3.031 0.184
25.7123 2.446 0.178
25.7194 3.455 0.188
25.7266 2.981 0.183
25.7337 3.726 0.190
25.7408 3.123 0.184
25.7480 3.879 0.191
25.7551 4.169 0.194
25.7623 4.591 0.198
25.7694 4.617 0.198
25.7766 5.074 0.202
25.7837 4.857 0.200
25.7909 5.637 0.207
25.7980 5.729 0.208
25.8052 6.394 0.213
25.8123 6.771 0.216
25.8194 7.547 0.222
25.8266 7.601 0.223
25.8337 8.648 0.231
25.8409 8.546 0.230
25.8480 9.242 0.235
25.8552 9.473 0.237
25.8623 9.580 0.238
25.8695 9.512 0.237
25.8766 10.365 0.243
25.8838 10.450 0.244
25.8909 10.456 0.244
25.8980 10.947 0.248
25.9052 11.279 0.250
25.9123 11.687 0.253
25.9195 11.870 0.254
25.9266 12.483 0.258
25.9338 12.843 0.261
25.9409 13.056 0.262
25.9481 12.940 0.261
25.9552 12.661 0.259
25.9624 12.684 0.260
25.9695 11.773 0.253
25.9766 11.754 0.253
25.9838 10.857 0.247
25.9909 9.789 0.240
25.9981 9.760 0.239
26.0052 8.582 0.231
26.0124 8.535 0.230
26.0195 7.832 0.225
26.0267 7.251 0.220
26.0338 6.705 0.216
26.0409 6.661 0.216
26.0481 6.657 0.216
26.0552 6.506 0.214
26.0624 6.539 0.215
26.0695 6.156 0.212
26.0767 6.554 0.215
26.0838 6.914 0.218
26.0910 6.961 0.218
26.0981 6.446 0.214
26.1053 6.368 0.213
26.1124 5.971 0.210
26.1195 5.987 0.210
26.1267 5.798 0.209
26.1338 5.206 0.204
26.1410 4.879 0.201
26.1481 4.364 0.197
26.1553 4.053 0.194
26.1624 3.531 0.189
26.1696 3.033 0.184
26.1767 2.924 0.183
26.1839 2.434 0.179
26.1910 2.262 0.177
26.1981 2.160 0.176
26.2053 1.846 0.173
26.2124 1.585 0.170
26.2196 1.445 0.169
26.2267 1.652 0.171
26.2339 1.400 0.169
26.2410 1.694 0.172
26.2482 1.596 0.171
26.2553 1.650 0.171
26.2624 1.333 0.168
26.2696 1.578 0.170
26.2767 1.456 0.169
26.2839 1.142 0.166
26.2910 1.359 0.168
26.2982 1.758 0.172
26.3053 1.496 0.170
26.3125 1.714 0.172
26.3196 1.400 0.169
26.3268 1.555 0.170
26.3339 1.804 0.173
26.3410 2.150 0.176
26.3482 1.739 0.172
26.3553 1.634 0.171
26.3625 1.917 0.174
26.3696 1.972 0.175
26.3768 2.023 0.175
26.3839 2.164 0.176
26.3911 2.048 0.175
26.3982 2.811 0.183
26.4054 2.508 0.180
26.4125 2.621 0.181
26.4196 2.627 0.181
26.4268 2.990 0.184
26.4339 3.257 0.187
26.4411 2.908 0.184
26.4482 2.935 0.184
26.4554 3.299 0.187
26.4625 3.430 0.189
26.4697 3.345 0.188
26.4768 3.601 0.190
26.4839 3.572 0.190
26.4911 4.109 0.195
26.4982 4.265 0.196
26.5054 4.423 0.198
26.5125 4.978 0.202
26.5197 4.373 0.197
26.5268 4.344 0.197
26.5340 4.877 0.202
26.5411 4.915 0.202
26.5483 5.160 0.204
26.5554 5.274 0.205
26.5625 6.144 0.212
26.5697 6.046 0.211
26.5768 6.181 0.213
26.5840 6.110 0.212
26.5911 6.050 0.211
26.5983 6.389 0.214
26.6054 6.520 0.215
26.6126 6.540 0.216
26.6197 7.018 0.219
26.6269 6.639 0.216
26.6340 7.169 0.221
26.6411 7.241 0.221
26.6483 7.699 0.225
26.6554 8.458 0.230
26.6626 8.287 0.229
26.6697 8.665 0.232
26.6769 8.004 0.227
26.6840 8.826 0.233
26.6912 8.829 0.233
26.6983 9.390 0.237
26.7055 8.938 0.234
26.7126 10.031 0.242
26.7197 9.856 0.241
26.7269 10.279 0.244
26.7340 10.014 0.242
26.7412 10.725 0.247
26.7483 10.846 0.248
26.7555 10.987 0.249
26.7626 11.160 0.250
26.7698 11.225 0.251
26.7769 11.697 0.254
26.7840 11.425 0.252
26.7912 11.504 0.252
26.7983 11.746 0.254
26.8055 12.357 0.258
26.8126 13.054 0.263
26.8198 12.543 0.260
26.8269 12.952 0.262
26.8341 13.284 0.264
26.8412 13.752 0.268
26.8484 13.578 0.266
26.8555 13.858 0.268
26.8626 14.555 0.273
26.8698 13.933 0.269
26.8769 14.550 0.273
26.8841 14.188 0.270
26.8912 14.452 0.272
26.8984 14.593 0.273
26.9055 14.513 0.272
26.9127 15.481 0.279
26.9198 16.105 0.282
26.9270 15.385 0.278
26.9341 15.676 0.280
26.9412 16.176 0.283
26.9484 16.060 0.282
26.9555 16.428 0.284
26.9627 16.417 0.284
26.9698 16.253 0.283
26.9770 17.044 0.288
26.9841 16.855 0.287
26.9913 16.383 0.284
26.9984 17.250 0.289
27.0055 17.017 0.288
27.0127 16.783 0.287
27.0198 17.915 0.293
27.0270 17.393 0.290
27.0341 18.018 0.294
27.0413 17.482 0.291
27.0484 17.367 0.290
27.0556 17.526 0.291
27.0627 17.640 0.292
27.0699 18.507 0.297
27.0770 18.132 0.295
27.0841 17.305 0.290
27.0913 18.110 0.295
27.0984 17.387 0.290
27.1056 17.303 0.290
27.1127 17.834 0.293
27.1199 17.729 0.292
27.1270 17.881 0.293
27.1342 18.318 0.296
27.1413 17.710 0.292
27.1485 17.567 0.291
27.1556 17.757 0.293
27.1627 18.125 0.295
27.1699 18.652 0.298
27.1770 18.016 0.294
27.1842 17.436 0.291
27.1913 17.828 0.293
27.1985 17.598 0.292
27.2056 17.837 0.293
27.2128 17.239 0.289
27.2199 16.992 0.288
27.2270 17.096 0.289
27.2342 16.908 0.288
27.2413 17.109 0.289
27.2485 16.963 0.288
27.2556 16.462 0.285
27.2628 16.566 0.285
27.2699 16.055 0.282
27.2771 15.877 0.281
27.2842 15.547 0.279
27.2914 15.932 0.282
27.2985 15.168 0.277
27.3056 15.494 0.279
27.3128 15.174 0.277
27.3199 15.243 0.277
27.3271 15.072 0.276
27.3342 14.849 0.275
27.3414 14.658 0.274
27.3485 14.345 0.272
27.3557 14.452 0.272
27.3628 14.376 0.272
27.3700 13.802 0.268
27.3771 13.823 0.268
27.3842 13.555 0.267
27.3914 13.586 0.267
27.3985 13.547 0.267
27.4057 13.096 0.264
27.4128 12.640 0.261
27.4200 12.352 0.259
27.4271 12.331 0.258
27.4343 11.879 0.255
27.4414 11.847 0.255
27.4485 11.948 0.256
27.4557 11.840 0.255
27.4628 11.648 0.254
27.4700 11.204 0.251
27.4771 10.228 0.244
27.4843 10.109 0.243
27.4914 10.404 0.245
27.4986 10.077 0.243
27.5057 9.935 0.242
27.5129 9.747 0.241
27.5200 9.365 0.238
27.5271 9.604 0.239
27.5343 8.684 0.233
27.5414 8.801 0.234
27.5486 9.135 0.236
27.5557 8.572 0.232
27.5629 8.297 0.230
27.5700 7.592 0.224
27.5772 7.825 0.226
27.5843 7.310 0.222
27.5915 7.366 0.223
27.5986 7.352 0.223
27.6057 7.303 0.222
27.6129 6.737 0.218
27.6200 6.625 0.217
27.6272 6.358 0.215
27.6343 6.687 0.217
27.6415 6.340 0.215
27.6486 6.399 0.215
27.6558 6.510 0.216
27.6629 6.426 0.215
27.6701 6.266 0.214
27.6772 5.721 0.209
27.6843 5.884 0.211
27.6915 5.755 0.210
27.6986 5.741 0.210
27.7058 5.745 0.210
27.7129 5.939 0.211
27.7201 5.935 0.211
27.7272 5.654 0.209
27.7344 5.251 0.206
27.7415 5.491 0.208
27.7486 5.470 0.207
27.7558 5.084 0.204
27.7629 4.772 0.201
27.7701 4.768 0.201
27.7772 5.167 0.205
27.7844 4.931 0.203
27.7915 4.785 0.202
27.7987 4.941 0.203
27.8058 4.726 0.201
27.8130 5.052 0.204
27.8201 4.858 0.202
27.8272 5.111 0.204
27.8344 5.170 0.205
27.8415 4.906 0.203
27.8487 4.941 0.203
27.8558 5.441 0.207
27.8630 5.309 0.206
27.8701 5.781 0.210
27.8773 5.812 0.210
27.8844 5.653 0.209
27.8916 5.705 0.209
27.8987 6.059 0.212
27.9058 5.792 0.210
27.9130 6.191 0.213
27.9201 6.028 0.212
27.9273 5.601 0.209
27.9344 5.858 0.211
27.9416 5.712 0.209
27.9487 5.840 0.210
27.9559 5.601 0.209
27.9630 5.768 0.210
27.9701 5.854 0.211
27.9773 5.806 0.210
27.9844 5.368 0.207
27.9916 5.629 0.209
27.9987 5.803 0.210
28.0059 6.094 0.213
28.0130 6.313 0.214
28.0202 6.046 0.212
28.0273 5.994 0.212
28.0345 6.122 0.213
28.0416 6.116 0.213
28.0487 6.491 0.216
28.0559 7.036 0.220
28.0630 6.588 0.217
28.0702 6.824 0.218
28.0773 7.533 0.224
28.0845 7.339 0.222
28.0916 7.419 0.223
28.0988 8.037 0.228
28.1059 8.402 0.231
28.1131 8.454 0.231
28.1202 8.777 0.233
28.1273 9.388 0.238
28.1345 10.020 0.243
28.1416 10.257 0.244
28.1488 11.191 0.251
28.1559 11.031 0.250
28.1631 11.563 0.253
28.1702 11.664 0.254
28.1774 12.709 0.261
28.1845 13.345 0.265
28.1916 13.789 0.268
28.1988 14.428 0.272
28.2059 15.213 0.277
28.2131 15.915 0.282
28.2202 16.030 0.282
28.2274 16.745 0.287
28.2345 17.700 0.292
28.2417 18.329 0.296
28.2488 19.576 0.303
28.2560 19.840 0.305
28.2631 21.045 0.312
28.2702 21.566 0.314
28.2774 22.310 0.319
28.2845 22.366 0.319
28.2917 23.220 0.323
28.2988 22.734 0.321
28.3060 22.530 0.320
28.3131 22.266 0.318
28.3203 21.242 0.313
28.3274 20.447 0.308
28.3346 19.861 0.305
28.3417 19.819 0.305
28.3488 19.240 0.301
28.3560 19.560 0.303
28.3631 19.748 0.304
28.3703 19.887 0.305
28.3774 19.995 0.306
28.3846 20.572 0.309
28.3917 20.523 0.309
28.3989 20.979 0.311
28.4060 21.798 0.316
28.4132 22.292 0.318
28.4203 22.358 0.319
28.4274 24.216 0.329
28.4346 24.630 0.331
28.4417 25.832 0.337
28.4489 26.221 0.339
28.4560 27.357 0.345
28.4632 27.291 0.345
28.4703 27.247 0.344
28.4775 26.473 0.340
28.4846 25.022 0.333
28.4917 22.724 0.321
28.4989 21.481 0.314
28.5060 19.360 0.302
28.5132 18.187 0.295
28.5203 15.552 0.279
28.5275 14.118 0.270
28.5346 12.938 0.262
28.5418 12.043 0.256
28.5489 10.925 0.249
28.5561 10.249 0.244
28.5632 9.381 0.238
28.5703 8.805 0.233
28.5775 9.142 0.236
28.5846 8.702 0.233
28.5918 8.564 0.232
28.5989 8.842 0.234
28.6061 9.214 0.236
28.6132 9.051 0.235
28.6204 9.132 0.236
28.6275 9.802 0.241
28.6347 9.675 0.240
28.6418 9.724 0.240
28.6489 9.440 0.238
28.6561 8.829 0.234
28.6632 8.243 0.229
28.6704 7.771 0.226
28.6775 6.622 0.217
28.6847 5.668 0.209
28.6918 5.026 0.203
28.6990 4.760 0.201
28.7061 4.000 0.194
28.7132 3.629 0.191
28.7204 2.619 0.182
28.7275 2.269 0.178
28.7347 1.981 0.175
28.7418 1.475 0.170
28.7490 1.688 0.172
28.7561 1.150 0.167
28.7633 0.987 0.165
28.7704 1.092 0.166
28.7776 1.117 0.167
28.7847 0.826 0.164
28.7918 1.063 0.166
28.7990 0.939 0.165
28.8061 0.682 0.162
28.8133 1.048 0.166
28.8204 0.496 0.160
28.8276 0.580 0.161
28.8347 0.612 0.161
28.8419 0.450 0.159
28.8490 0.950 0.165
28.8562 0.816 0.163
28.8633 0.764 0.163
28.8704 0.335 0.158
28.8776 0.703 0.162
28.8847 0.715 0.162
28.8919 0.736 0.162
28.8990 0.862 0.164
28.9062 0.203 0.157
28.9133 0.686 0.162
28.9205 0.375 0.159
28.9276 0.855 0.164
28.9347 0.890 0.164
28.9419 0.485 0.160
28.9490 0.805 0.163
28.9562 0.653 0.162
28.9633 0.563 0.161
28.9705 0.331 0.158
28.9776 0.659 0.162
28.9848 0.462 0.159
28.9919 0.553 0.160
28.9991 0.606 0.161
29.0062 0.256 0.157
29.0133 0.513 0.160
29.0205 0.424 0.159
29.0276 0.682 0.162
29.0348 0.370 0.158
29.0419 0.680 0.162
29.0491 0.344 0.158
29.0562 0.296 0.158
29.0634 1.026 0.165
29.0705 0.777 0.163
29.0777 0.507 0.160
29.0848 0.737 0.162
29.0919 0.693 0.162
29.0991 0.732 0.162
29.1062 0.615 0.161
29.1134 0.803 0.163
29.1205 0.853 0.163
29.1277 0.642 0.161
29.1348 1.261 0.168
29.1420 1.088 0.166
29.1491 1.027 0.165
29.1562 1.125 0.166
29.1634 1.331 0.168
29.1705 1.248 0.168
29.1777 1.683 0.172
29.1848 1.320 0.168
29.1920 1.161 0.167
29.1991 1.707 0.172
29.2063 1.576 0.171
29.2134 1.726 0.172
29.2206 1.832 0.173
29.2277 1.666 0.172
29.2348 1.688 0.172
29.2420 1.904 0.174
29.2491 1.780 0.173
29.2563 1.677 0.172
29.2634 1.661 0.172
29.2706 1.728 0.172
29.2777 1.558 0.171
29.2849 1.841 0.173
29.2920 1.588 0.171
29.2992 1.829 0.173
29.3063 1.570 0.171
29.3134 1.460 0.169
29.3206 1.655 0.171
29.3277 1.726 0.172
29.3349 1.952 0.174
29.3420 1.738 0.172
29.3492 1.618 0.171
29.3563 1.893 0.174
29.3635 2.144 0.176
29.3706 2.218 0.177
29.3778 2.164 0.176
29.3849 2.116 0.176
29.3920 2.461 0.179
29.3992 2.275 0.178
29.4063 2.432 0.179
29.4135 2.107 0.176
29.4206 2.483 0.180
29.4278 2.432 0.179
29.4349 2.183 0.177
29.4421 2.532 0.180
29.4492 2.574 0.180
29.4563 2.416 0.179
29.4635 2.167 0.176
29.4706 2.231 0.177
29.4778 2.090 0.176
29.4849 2.448 0.179
29.4921 2.252 0.177
29.4992 2.176 0.176
29.5064 2.393 0.179
29.5135 2.241 0.177
29.5207 2.413 0.179
29.5278 2.667 0.181
29.5349 2.554 0.180
29.5421 2.729 0.182
29.5492 2.622 0.181
29.5564 2.940 0.184
29.5635 2.819 0.183
29.5707 3.133 0.185
29.5778 3.412 0.188
29.5850 3.295 0.187
29.5921 3.623 0.190
29.5993 3.423 0.188
29.6064 3.997 0.193
29.6135 4.144 0.195
29.6207 4.430 0.197
29.6278 5.116 0.203
29.6350 5.228 0.204
29.6421 5.379 0.205
29.6493 5.720 0.208
29.6564 6.840 0.217
29.6636 6.417 0.214
29.6707 7.502 0.222
29.6778 7.739 0.224
29.6850 8.071 0.227
29.6921 8.329 0.229
29.6993 8.483 0.230
29.7064 8.397 0.229
29.7136 8.968 0.234
29.7207 9.261 0.236
29.7279 10.120 0.242
29.7350 10.434 0.244
29.7422 11.029 0.248
29.7493 11.725 0.253
29.7564 11.581 0.252
29.7636 11.624 0.252
29.7707 12.785 0.260
29.7779 12.870 0.261
29.7850 12.937 0.261
29.7922 12.268 0.257
29.7993 12.537 0.259
29.8065 11.775 0.253
29.8136 11.290 0.250
29.8208 9.850 0.240
29.8279 9.296 0.236
29.8350 8.756 0.232
29.8422 8.598 0.231
29.8493 7.155 0.219
29.8565 6.712 0.216
29.8636 7.054 0.219
29.8708 6.427 0.214
29.8779 6.043 0.210
29.8851 6.259 0.212
29.8922 5.976 0.210
29.8993 5.856 0.209
29.9065 5.976 0.210
29.9136 5.571 0.206
29.9208 5.725 0.208
29.9279 6.355 0.213
29.9351 5.961 0.210
29.9422 6.084 0.211
29.9494 6.388 0.213
29.9565 6.188 0.212
29.9637 6.023 0.210
29.9708 6.219 0.212
29.9779 6.175 0.211
29.9851 5.402 0.205
29.9922 5.338 0.204
29.9994 4.971 0.201
30.0065 4.327 0.196
30.0137 3.884 0.192
30.0208 3.556 0.189
30.0280 2.485 0.178
30.0351 2.580 0.179
30.0423 2.342 0.177
30.0494 1.583 0.169
30.0565 1.505 0.169
30.0637 1.215 0.166
30.0708 1.192 0.165
30.0780 0.888 0.162
30.0851 1.244 0.166
30.0923 0.940 0.163
30.0994 0.768 0.161
30.1066 0.704 0.160
30.1137 0.431 0.157
30.1209 0.631 0.159
30.1280 0.712 0.160
30.1351 0.620 0.159
30.1423 0.358 0.156
30.1494 0.308 0.155
30.1566 0.431 0.157
30.1637 0.433 0.157
30.1709 0.465 0.157
30.1780 0.495 0.157
30.1852 0.320 0.156
30.1923 0.151 0.154
30.1994 0.590 0.158
30.2066 0.672 0.159
30.2137 0.396 0.156
30.2209 0.446 0.157
30.2280 -0.049 0.151
30.2352 0.262 0.155
30.2423 0.295 0.155
30.2495 0.182 0.154
30.2566 0.080 0.153
30.2638 0.231 0.154
30.2709 0.000 0.152
30.2780 0.183 0.154
30.2852 0.164 0.153
30.2923 0.398 0.156
30.2995 0.393 0.156
30.3066 0.058 0.152
30.3138 0.344 0.155
30.3209 0.152 0.153
30.3281 0.299 0.155
30.3352 0.044 0.152
30.3424 0.181 0.154
30.3495 0.343 0.155
30.3566 0.425 0.156
30.3638 0.121 0.153
30.3709 -0.013 0.151
30.3781 0.097 0.152
30.3852 0.547 0.157
30.3924 0.191 0.153
30.3995 0.057 0.152
30.4067 0.393 0.156
30.4138 0.499 0.157
30.4209 0.119 0.153
30.4281 0.249 0.154
30.4352 0.178 0.153
30.4424 0.037 0.152
30.4495 0.366 0.155
30.4567 0.368 0.155
30.4638 0.442 0.156
30.4710 0.278 0.154
30.4781 0.516 0.157
30.4853 0.337 0.155
30.4924 0.599 0.158
30.4995 0.306 0.154
30.5067 0.378 0.155
30.5138 0.296 0.154
30.5210 0.434 0.156
30.5281 0.422 0.156
30.5353 0.229 0.153
30.5424 0.426 0.156
30.5496 0.653 0.158
30.5567 0.221 0.153
30.5639 0.456 0.156
30.5710 0.604 0.158
30.5781 0.717 0.159
30.5853 0.521 0.157
30.5924 0.297 0.154
30.5996 0.515 0.156
30.6067 0.975 0.161
30.6139 0.331 0.154
30.6210 0.788 0.159
30.6282 0.898 0.161
30.6353 0.667 0.158
30.6424 0.961 0.161
30.6496 0.775 0.159
30.6567 0.809 0.160
30.6639 1.054 0.162
30.6710 0.577 0.157
30.6782 0.707 0.158
30.6853 0.817 0.160
30.6925 0.972 0.161
30.6996 1.057 0.162
30.7068 0.605 0.157
30.7139 0.759 0.159
30.7210 1.137 0.163
30.7282 1.156 0.163
30.7353 1.432 0.166
30.7425 1.251 0.164
30.7496 1.267 0.164
30.7568 1.224 0.164
30.7639 1.403 0.166
30.7711 1.388 0.165
30.7782 1.435 0.166
30.7854 1.510 0.167
30.7925 1.384 0.165
30.7996 1.295 0.164
30.8068 1.704 0.169
30.8139 1.682 0.168
30.8211 1.833 0.170
30.8282 1.915 0.171
30.8354 2.001 0.171
30.8425 1.941 0.171
30.8497 1.835 0.170
30.8568 2.018 0.172
30.8639 2.037 0.172
30.8711 1.970 0.171
30.8782 1.979 0.171
30.8854 2.162 0.173
30.8925 2.387 0.175
30.8997 2.035 0.172
30.9068 2.138 0.173
30.9140 2.341 0.175
30.9211 2.476 0.176
30.9283 2.481 0.176
30.9354 2.779 0.179
30.9425 2.552 0.177
30.9497 2.613 0.177
30.9568 2.879 0.180
30.9640 2.656 0.178
30.9711 2.898 0.180
30.9783 2.980 0.181
30.9854 2.836 0.179
30.9926 2.787 0.179
30.9997 3.053 0.181
31.0069 3.059 0.181
31.0140 2.894 0.180
31.0211 3.327 0.184
31.0283 3.323 0.184
31.0354 3.193 0.183
31.0426 3.376 0.184
31.0497 3.448 0.185
31.0569 3.110 0.182
31.0640 3.379 0.184
31.0712 3.427 0.185
31.0783 3.617 0.186
31.0855 3.716 0.187
31.0926 3.854 0.189
31.0997 3.794 0.188
31.1069 3.984 0.190
31.1140 4.111 0.191
31.1212 4.107 0.191
31.1283 4.484 0.194
31.1355 4.553 0.195
31.1426 4.493 0.194
31.1498 4.387 0.193
31.1569 4.355 0.193
31.1640 4.121 0.191
31.1712 4.068 0.190
31.1783 4.519 0.194
31.1855 4.358 0.193
31.1926 4.742 0.196
31.1998 4.554 0.195
31.2069 4.539 0.194
31.2141 4.305 0.192
31.2212 4.707 0.196
31.2284 4.737 0.196
31.2355 4.809 0.197
31.2426 4.652 0.195
31.2498 4.526 0.194
31.2569 4.792 0.197
31.2641 4.462 0.194
31.2712 4.520 0.194
31.2784 4.661 0.195
31.2855 4.539 0.194
31.2927 4.816 0.197
31.2998 4.842 0.197
31.3070 4.685 0.195
31.3141 4.792 0.196
31.3212 4.753 0.196
31.3284 4.599 0.195
31.3355 4.869 0.197
31.3427 4.781 0.196
31.3498 4.791 0.196
31.3570 4.408 0.193
31.3641 4.921 0.197
31.3713 5.045 0.198
31.3784 5.027 0.198
31.3855 4.467 0.193
31.3927 4.907 0.197
31.3998 4.944 0.197
31.4070 4.541 0.194
31.4141 4.585 0.194
31.4213 4.640 0.195
31.4284 4.549 0.194
31.4356 4.472 0.193
31.4427 4.592 0.194
31.4499 4.578 0.194
31.4570 4.577 0.194
31.4641 4.239 0.191
31.4713 4.745 0.195
31.4784 4.005 0.189
31.4856 4.139 0.190
31.4927 4.028 0.189
31.4999 4.166 0.190
31.5070 4.356 0.192
31.5142 4.015 0.189
31.5213 4.549 0.193
31.5285 4.131 0.190
31.5356 3.950 0.188
31.5427 3.963 0.188
31.5499 4.268 0.191
31.5570 3.441 0.183
31.5642 3.760 0.186
31.5713 3.623 0.185
31.5785 3.459 0.183
31.5856 3.091 0.180
31.5928 3.427 0.183
31.5999 3.770 0.186
31.6070 3.457 0.183
31.6142 3.470 0.183
31.6213 3.132 0.180
31.6285 3.087 0.179
31.6356 2.818 0.177
31.6428 2.912 0.178
31.6499 2.696 0.176
31.6571 2.823 0.177
31.6642 2.805 0.177
31.6714 2.985 0.178
31.6785 2.665 0.175
31.6856 2.494 0.173
31.6928 2.400 0.172
31.6999 2.760 0.176
31.7071 2.368 0.172
31.7142 2.106 0.169
31.7214 2.634 0.175
31.7285 2.386 0.172
31.7357 1.820 0.166
31.7428 1.882 0.167
31.7500 1.708 0.165
31.7571 1.856 0.167
31.7642 1.939 0.167
31.7714 1.813 0.166
31.7785 2.018 0.168
31.7857 1.507 0.163
31.7928 1.513 0.163
31.8000 1.429 0.162
31.8071 1.658 0.164
31.8143 1.307 0.161
31.8214 1.445 0.162
31.8286 1.007 0.157
31.8357 1.135 0.159
31.8428 1.381 0.161
31.8500 1.217 0.159
31.8571 1.161 0.159
31.8643 1.296 0.160
31.8714 0.931 0.156
31.8786 1.010 0.157
31.8857 0.735 0.154
31.8929 0.978 0.157
31.9000 0.818 0.155
31.9071 0.432 0.150
31.9143 0.945 0.156
31.9214 0.820 0.155
31.9286 0.684 0.153
31.9357 0.635 0.153
31.9429 0.843 0.155
31.9500 0.408 0.150
31.9572 0.634 0.152
31.9643 0.359 0.149
31.9715 0.275 0.148
31.9786 0.396 0.150
31.9857 0.354 0.149
31.9929 0.402 0.150
32.0000 0.353 0.149
32.0072 0.238 0.148
32.0143 0.155 0.147
32.0215 0.415 0.150
32.0286 0.143 0.146
32.0358 0.209 0.147
32.0429 0.146 0.146
32.0501 -0.049 0.144
32.0572 0.187 0.147
32.0643 0.336 0.148
32.0715 0.263 0.148
32.0786 -0.040 0.144
32.0858 0.293 0.148
32.0929 -0.141 0.143
32.1001 0.313 0.148
32.1072 0.039 0.145
32.1144 -0.066 0.143
32.1215 -0.142 0.142
32.1286 0.035 0.145
32.1358 -0.013 0.144
32.1429 0.098 0.145
32.1501 0.220 0.147
32.1572 -0.016 0.144
32.1644 -0.161 0.142
32.1715 0.134 0.146
32.1787 0.315 0.148
32.1858 0.135 0.146
32.1930 0.198 0.146
32.2001 0.049 0.145
32.2072 0.146 0.146
32.2144 -0.072 0.143
32.2215 0.248 0.147
32.2287 -0.037 0.144
32.2358 0.005 0.144
32.2430 -0.060 0.143
32.2501 0.225 0.147
32.2573 -0.160 0.142
32.2644 0.076 0.145
32.2716 -0.086 0.143
32.2787 -0.044 0.144
32.2858 0.383 0.149
32.2930 -0.026 0.144
32.3001 0.068 0.145
32.3073 -0.070 0.143
32.3144 0.052 0.145
32.3216 -0.017 0.144
32.3287 0.112 0.145
32.3359 -0.037 0.144
32.3430 0.331 0.148
32.3501 -0.092 0.143
32.3573 -0.008 0.144
32.3644 0.069 0.145
32.3716 -0.028 0.144
32.3787 0.236 0.147
32.3859 0.067 0.145
32.3930 0.178 0.146
32.4002 0.068 0.145
32.4073 0.110 0.145
32.4145 0.006 0.144
32.4216 0.299 0.148
32.4287 0.188 0.146
32.4359 -0.152 0.142
32.4430 0.193 0.146
32.4502 0.138 0.146
32.4573 0.048 0.145
32.4645 -0.004 0.144
32.4716 0.226 0.147
32.4788 0.622 0.151
32.4859 0.366 0.148
32.4931 0.203 0.146
32.5002 0.277 0.147
32.5073 0.528 0.150
32.5145 0.101 0.145
32.5216 0.431 0.149
32.5288 0.588 0.151
32.5359 0.419 0.149
32.5431 0.374 0.148
32.5502 0.521 0.150
32.5574 0.549 0.150
32.5645 0.459 0.149
32.5716 0.398 0.149
32.5788 0.714 0.152
32.5859 0.486 0.150
32.5931 0.462 0.149
32.6002 0.359 0.148
32.6074 0.491 0.150
32.6145 0.582 0.151
32.6217 0.572 0.151
32.6288 0.538 0.150
32.6360 0.546 0.150
32.6431 0.769 0.153
32.6502 0.676 0.152
32.6574 0.683 0.152
32.6645 0.604 0.151
32.6717 0.980 0.155
32.6788 0.786 0.153
32.6860 1.113 0.157
32.6931 0.534 0.150
32.7003 0.608 0.151
32.7074 0.807 0.153
32.7146 0.790 0.153
32.7217 1.062 0.156
32.7288 1.118 0.157
32.7360 1.098 0.156
32.7431 0.831 0.153
32.7503 0.908 0.154
32.7574 1.017 0.155
32.7646 0.844 0.153
32.7717 1.178 0.157
32.7789 1.252 0.158
32.7860 1.277 0.158
32.7932 1.222 0.158
32.8003 0.890 0.154
32.8074 1.255 0.158
32.8146 0.773 0.153
32.8217 1.264 0.158
32.8289 1.101 0.156
32.8360 1.418 0.160
32.8432 1.537 0.161
32.8503 1.385 0.159
32.8575 1.455 0.160
32.8646 1.425 0.160
32.8717 1.471 0.160
32.8789 1.565 0.161
32.8860 1.747 0.163
32.8932 1.848 0.164
32.9003 2.075 0.167
32.9075 2.013 0.166
32.9146 1.993 0.166
32.9218 2.289 0.169
32.9289 1.804 0.164
32.9361 2.156 0.167
32.9432 2.143 0.167
32.9503 2.647 0.172
32.9575 2.009 0.166
32.9646 2.285 0.169
32.9718 2.647 0.172
32.9789 2.519 0.171
32.9861 2.711 0.173
32.9932 2.952 0.175
33.0004 3.126 0.177
33.0075 2.683 0.173
33.0147 3.191 0.178
33.0218 3.685 0.182
33.0289 3.488 0.181
33.0361 3.537 0.181
33.0432 3.719 0.183
33.0504 4.168 0.187
33.0575 4.516 0.190
33.0647 4.447 0.190
33.0718 4.556 0.191
33.0790 4.755 0.192
33.0861 4.503 0.190
33.0932 4.802 0.193
33.1004 4.734 0.192
33.1075 5.172 0.196
33.1147 5.104 0.195
33.1218 5.796 0.201
33.1290 5.766 0.201
33.1361 6.069 0.204
33.1433 5.761 0.201
33.1504 5.977 0.203
33.1576 5.992 0.203
33.1647 5.816 0.202
33.1718 5.678 0.200
33.1790 5.169 0.196
33.1861 5.340 0.197
33.1933 5.501 0.199
33.2004 5.377 0.198
33.2076 5.351 0.197
33.2147 4.838 0.193
33.2219 4.905 0.193
33.2290 4.892 0.193
33.2362 5.317 0.197
33.2433 5.110 0.195
33.2504 5.625 0.200
33.2576 5.345 0.197
33.2647 5.568 0.199
33.2719 5.892 0.202
33.2790 6.706 0.209
33.2862 6.606 0.208
33.2933 6.545 0.208
33.3005 6.886 0.210
33.3076 6.516 0.207
33.3147 6.871 0.210
33.3219 6.529 0.207
33.3290 6.988 0.211
33.3362 7.003 0.211
33.3433 7.348 0.214
33.3505 7.020 0.211
33.3576 6.962 0.211
33.3648 7.251 0.213
33.3719 7.082 0.212
33.3791 7.361 0.214
33.3862 6.911 0.210
33.3933 7.194 0.213
33.4005 7.067 0.212
33.4076 7.245 0.213
33.4148 7.427 0.215
33.4219 7.404 0.214
33.4291 7.582 0.216
33.4362 7.771 0.217
33.4434 7.779 0.217
33.4505 7.666 0.217
33.4577 7.698 0.217
33.4648 7.509 0.215
33.4719 7.402 0.214
33.4791 7.286 0.213
33.4862 6.676 0.208
33.4934 6.646 0.208
33.5005 6.442 0.206
33.5077 6.558 0.207
33.5148 5.983 0.202
33.5220 5.707 0.200
33.5291 5.649 0.200
33.5363 5.334 0.197
33.5434 4.839 0.192
33.5505 4.643 0.191
33.5577 4.290 0.187
33.5648 4.371 0.188
33.5720 4.116 0.186
33.5791 3.898 0.184
33.5863 3.768 0.182
33.5934 3.505 0.180
33.6006 3.635 0.181
33.6077 3.248 0.177
33.6148 3.232 0.177
33.6220 3.216 0.177
33.6291 3.498 0.180
33.6363 3.646 0.181
33.6434 3.394 0.179
33.6506 3.385 0.179
33.6577 3.143 0.176
33.6649 3.207 0.177
33.6720 2.865 0.173
33.6792 3.099 0.176
33.6863 2.711 0.172
33.6934 2.334 0.168
33.7006 2.319 0.168
33.7077 2.310 0.168
33.7149 2.269 0.167
33.7220 2.080 0.165
33.7292 1.977 0.164
33.7363 1.614 0.160
33.7435 1.650 0.161
33.7506 1.454 0.158
33.7578 1.473 0.159
33.7649 1.533 0.159
33.7720 1.101 0.155
33.7792 0.988 0.153
33.7863 0.903 0.152
33.7935 0.866 0.152
33.8006 0.322 0.145
33.8078 0.560 0.148
33.8149 0.312 0.145
33.8221 0.240 0.144
33.8292 0.475 0.147
33.8363 0.150 0.143
33.8435 0.224 0.144
33.8506 0.302 0.145
33.8578 0.113 0.143
33.8649 -0.007 0.141
33.8721 0.251 0.144
33.8792 -0.011 0.141
33.8864 -0.072 0.140
33.8935 -0.140 0.140
33.9007 -0.121 0.140
33.9078 -0.013 0.141
33.9149 0.141 0.143
33.9221 0.072 0.142
33.9292 -0.277 0.138
33.9364 0.064 0.142
33.9435 -0.012 0.141
33.9507 -0.014 0.141
33.9578 -0.034 0.141
33.9650 0.175 0.143
33.9721 -0.025 0.141
33.9793 -0.125 0.140
33.9864 0.091 0.142
33.9935 -0.286 0.138
34.0007 -0.066 0.140
34.0078 -0.086 0.140
34.0150 -0.051 0.140
34.0221 -0.241 0.138
34.0293 0.198 0.143
34.0364 0.025 0.141
34.0436 0.117 0.142
34.0507 0.013 0.141
34.0578 0.001 0.141
34.0650 0.074 0.142
34.0721 -0.018 0.141
34.0793 0.149 0.143
34.0864 0.046 0.142
34.0936 -0.099 0.140
34.1007 -0.077 0.140
34.1079 0.042 0.141
34.1150 -0.092 0.140
34.1222 0.232 0.144
34.1293 0.317 0.145
34.1364 0.526 0.147
34.1436 0.169 0.143
34.1507 0.205 0.143
34.1579 0.401 0.146
34.1650 0.405 0.146
34.1722 0.156 0.143
34.1793 0.161 0.143
34.1865 0.134 0.142
34.1936 0.264 0.144
34.2008 0.317 0.145
34.2079 0.294 0.144
34.2150 0.337 0.145
34.2222 0.022 0.141
34.2293 0.304 0.144
34.2365 0.687 0.149
34.2436 0.105 0.142
34.2508 0.124 0.142
34.2579 0.281 0.144
34.2651 0.327 0.145
34.2722 0.176 0.143
34.2793 0.066 0.141
34.2865 0.393 0.145
34.2936 0.572 0.147
34.3008 0.368 0.145
34.3079 0.227 0.143
34.3151 0.166 0.143
34.3222 0.222 0.143
34.3294 0.515 0.147
34.3365 0.395 0.145
34.3437 0.431 0.146
34.3508 0.279 0.144
34.3579 0.527 0.147
34.3651 0.615 0.148
34.3722 0.835 0.150
34.3794 0.725 0.149
34.3865 0.716 0.149
34.3937 0.488 0.146
34.4008 0.569 0.147
34.4080 1.088 0.153
34.4151 0.964 0.152
34.4223 1.108 0.153
34.4294 1.005 0.152
34.4365 0.986 0.152
34.4437 1.299 0.155
34.4508 1.165 0.154
34.4580 0.944 0.151
34.4651 1.338 0.156
34.4723 1.284 0.155
34.4794 1.240 0.155
34.4866 1.293 0.155
34.4937 1.152 0.154
34.5009 1.220 0.154
34.5080 1.235 0.155
34.5151 1.382 0.156
34.5223 1.557 0.158
34.5294 1.215 0.154
34.5366 1.386 0.156
34.5437 1.356 0.156
34.5509 1.417 0.157
34.5580 1.484 0.157
34.5652 1.718 0.160
34.5723 1.785 0.161
34.5794 1.676 0.159
34.5866 1.861 0.161
34.5937 1.647 0.159
34.6009 1.732 0.160
34.6080 2.244 0.165
34.6152 2.100 0.164
34.6223 2.438 0.167
34.6295 2.602 0.169
34.6366 2.493 0.168
34.6438 2.657 0.170
34.6509 2.298 0.166
34.6580 2.782 0.171
34.6652 3.117 0.174
34.6723 3.278 0.176
34.6795 3.147 0.174
34.6866 3.520 0.178
34.6938 3.609 0.179
34.7009 3.253 0.175
34.7081 3.525 0.178
34.7152 3.526 0.178
34.7224 4.000 0.183
34.7295 3.786 0.181
34.7366 3.527 0.178
34.7438 3.758 0.180
34.7509 3.419 0.177
34.7581 3.431 0.177
34.7652 3.249 0.175
34.7724 3.462 0.177
34.7795 2.849 0.171
34.7867 2.615 0.169
34.7938 2.825 0.171
34.8009 2.725 0.170
34.8081 2.654 0.169
34.8152 2.621 0.169
34.8224 2.553 0.168
34.8295 3.065 0.173
34.8367 2.952 0.172
34.8438 2.905 0.172
34.8510 2.997 0.173
34.8581 3.311 0.176
34.8653 3.608 0.179
34.8724 3.450 0.177
34.8795 3.687 0.179
34.8867 3.943 0.182
34.8938 4.038 0.183
34.9010 4.613 0.188
34.9081 4.763 0.189
34.9153 4.939 0.191
34.9224 5.114 0.193
34.9296 5.164 0.193
34.9367 5.704 0.198
34.9439 6.258 0.203
34.9510 6.339 0.203
34.9581 6.261 0.203
34.9653 6.614 0.206
34.9724 6.511 0.205
34.9796 6.850 0.207
34.9867 7.060 0.209
34.9939 7.360 0.212
35.0010 7.494 0.213
35.0082 7.614 0.214
35.0153 7.587 0.214
35.0224 7.669 0.214
35.0296 7.615 0.214
35.0367 7.857 0.216
35.0439 7.924 0.216
35.0510 8.006 0.217
35.0582 7.410 0.212
35.0653 6.478 0.204
35.0725 6.299 0.203
35.0796 5.687 0.197
35.0868 5.293 0.194
35.0939 5.027 0.191
35.1010 4.567 0.187
35.1082 3.975 0.182
35.1153 3.369 0.176
35.1225 3.663 0.179
35.1296 3.442 0.176
35.1368 3.125 0.173
35.1439 2.998 0.172
35.1511 3.187 0.174
35.1582 2.929 0.171
35.1654 3.396 0.176
35.1725 2.780 0.170
35.1796 2.830 0.170
35.1868 3.193 0.174
35.1939 3.421 0.176
35.2011 3.357 0.175
35.2082 3.289 0.175
35.2154 3.319 0.175
35.2225 3.699 0.179
35.2297 3.690 0.179
35.2368 3.717 0.179
35.2440 3.837 0.180
35.2511 3.852 0.180
35.2582 4.090 0.182
35.2654 3.749 0.179
35.2725 3.643 0.178
35.2797 3.777 0.179
35.2868 3.418 0.176
35.2940 2.968 0.171
35.3011 2.678 0.168
35.3083 2.590 0.167
35.3154 2.186 0.163
35.3225 1.820 0.159
35.3297 1.915 0.160
35.3368 1.487 0.155
35.3440 1.374 0.154
35.3511 1.376 0.154
35.3583 1.052 0.150
35.3654 0.963 0.149
35.3726 0.778 0.147
35.3797 0.985 0.149
35.3869 1.070 0.150
35.3940 1.124 0.151
35.4011 0.814 0.147
35.4083 0.923 0.149
35.4154 0.887 0.148
35.4226 0.698 0.146
35.4297 0.752 0.147
35.4369 0.765 0.147
35.4440 0.982 0.149
35.4512 0.849 0.148
35.4583 0.917 0.148
35.4655 0.766 0.147
35.4726 0.570 0.144
35.4797 0.784 0.147
35.4869 0.498 0.143
35.4940 0.462 0.143
35.5012 0.738 0.146
35.5083 0.914 0.148
35.5155 0.840 0.147
35.5226 0.793 0.147
35.5298 0.820 0.147
35.5369 1.159 0.151
35.5440 1.140 0.151
35.5512 1.055 0.150
35.5583 1.245 0.152
35.5655 0.851 0.147
35.5726 0.978 0.149
35.5798 1.185 0.151
35.5869 1.181 0.151
35.5941 0.711 0.145
35.6012 1.220 0.151
35.6084 0.993 0.149
35.6155 1.186 0.151
35.6226 0.917 0.148
35.6298 1.461 0.154
35.6369 1.140 0.150
35.6441 1.347 0.153
35.6512 1.047 0.149
35.6584 1.136 0.150
35.6655 0.850 0.147
35.6727 1.391 0.153
35.6798 1.011 0.149
35.6870 1.111 0.150
35.6941 1.141 0.150
35.7012 1.334 0.152
35.7084 1.003 0.148
35.7155 1.436 0.153
35.7227 1.212 0.151
35.7298 1.562 0.155
35.7370 1.883 0.158
35.7441 1.799 0.157
35.7513 1.871 0.158
35.7584 1.751 0.157
35.7655 1.840 0.158
35.7727 2.034 0.160
35.7798 2.282 0.163
35.7870 2.320 0.163
35.7941 2.791 0.168
35.8013 2.716 0.167
35.8084 2.552 0.165
35.8156 3.186 0.172
35.8227 2.855 0.168
35.8299 3.035 0.170
35.8370 3.287 0.173
35.8441 3.432 0.174
35.8513 3.479 0.175
35.8584 3.562 0.175
35.8656 3.710 0.177
35.8727 3.903 0.179
35.8799 4.110 0.181
35.8870 3.852 0.178
35.8942 4.428 0.184
35.9013 4.305 0.182
35.9085 4.342 0.183
35.9156 4.480 0.184
35.9227 4.416 0.183
35.9299 4.127 0.181
35.9370 3.935 0.179
35.9442 4.087 0.180
35.9513 3.669 0.176
35.9585 3.845 0.178
35.9656 3.646 0.176
35.9728 3.517 0.175
35.9799 3.384 0.173
35.9870 2.997 0.169
35.9942 2.969 0.169
36.0013 2.856 0.168
36.0085 3.043 0.170
36.0156 3.084 0.170
36.0228 2.781 0.167
36.0299 2.644 0.165
36.0371 2.907 0.168
36.0442 3.232 0.171
36.0514 3.044 0.170
36.0585 3.314 0.172
36.0656 3.417 0.173
36.0728 3.430 0.173
36.0799 3.332 0.172
36.0871 3.272 0.172
36.0942 3.465 0.174
36.1014 3.544 0.174
36.1085 3.713 0.176
36.1157 3.792 0.177
36.1228 3.923 0.178
36.1300 3.784 0.177
36.1371 3.831 0.177
36.1442 3.976 0.179
36.1514 3.597 0.175
36.1585 3.808 0.177
36.1657 3.425 0.173
36.1728 3.393 0.173
36.1800 2.986 0.168
36.1871 2.704 0.166
36.1943 2.585 0.164
36.2014 2.417 0.162
36.2086 2.114 0.159
36.2157 2.318 0.161
36.2228 1.942 0.157
36.2300 1.747 0.155
36.2371 1.791 0.155
36.2443 1.478 0.152
36.2514 1.450 0.152
36.2586 1.237 0.149
36.2657 1.354 0.150
36.2729 1.378 0.151
36.2800 1.280 0.149
36.2871 1.362 0.150
36.2943 1.174 0.148
36.3014 1.079 0.147
36.3086 1.110 0.147
36.3157 1.012 0.146
36.3229 0.983 0.146
36.3300 1.194 0.148
36.3372 1.162 0.148
36.3443 1.189 0.148
36.3515 1.067 0.147
36.3586 1.066 0.147
36.3657 0.968 0.145
36.3729 0.905 0.145
36.3800 0.977 0.145
36.3872 0.886 0.144
36.3943 0.837 0.144
36.4015 0.819 0.143
36.4086 0.895 0.144
36.4158 0.838 0.144
36.4229 0.716 0.142
36.4301 0.809 0.143
36.4372 0.663 0.141
36.4443 0.707 0.142
36.4515 0.443 0.139
36.4586 0.324 0.137
36.4658 0.379 0.138
36.4729 0.569 0.140
36.4801 0.270 0.136
36.4872 0.405 0.138
36.4944 0.369 0.137
36.5015 0.303 0.137
36.5086 0.226 0.136
36.5158 0.083 0.134
36.5229 0.037 0.133
36.5301 0.165 0.135
36.5372 -0.037 0.132
36.5444 -0.097 0.131
36.5515 0.159 0.134
36.5587 0.103 0.134
36.5658 0.058 0.133
36.5730 0.015 0.132
36.5801 0.268 0.136
36.5872 0.254 0.135
36.5944 -0.191 0.130
36.6015 0.103 0.133
36.6087 -0.057 0.131
36.6158 0.123 0.134
36.6230 0.011 0.132
36.6301 -0.055 0.131
36.6373 0.111 0.133
36.6444 0.045 0.132
36.6516 0.145 0.134
36.6587 0.071 0.133
36.6658 0.116 0.133
36.6730 0.081 0.133
36.6801 0.209 0.134
36.6873 0.010 0.132
36.6944 0.246 0.135
36.7016 0.131 0.133
36.7087 0.172 0.134
36.7159 0.185 0.134
36.7230 0.112 0.133
36.7301 -0.062 0.131
36.7373 0.278 0.135
36.7444 0.197 0.134
36.7516 0.006 0.131
36.7587 -0.026 0.131
36.7659 0.022 0.131
36.7730 0.171 0.133
36.7802 0.018 0.131
36.7873 0.032 0.131
36.7945 0.115 0.133
36.8016 0.010 0.131
36.8087 0.180 0.133
36.8159 0.270 0.134
36.8230 0.047 0.131
36.8302 0.172 0.133
36.8373 0.265 0.134
36.8445 0.091 0.132
36.8516 0.164 0.133
36.8588 -0.174 0.128
36.8659 -0.129 0.129
36.8731 0.127 0.132
36.8802 0.023 0.131
36.8873 0.251 0.134
36.8945 0.230 0.133
36.9016 0.084 0.132
36.9088 0.027 0.131
36.9159 0.232 0.133
36.9231 0.172 0.133
36.9302 0.064 0.131
36.9374 0.140 0.132
36.9445 0.084 0.131
36.9517 0.198 0.133
36.9588 0.308 0.134
36.9659 0.308 0.134
36.9731 0.443 0.136
36.9802 0.151 0.132
36.9874 0.213 0.133
36.9945 0.233 0.133
37.0017 0.094 0.131
37.0088 0.239 0.133
37.0160 0.155 0.132
37.0231 0.175 0.132
37.0302 0.161 0.132
37.0374 0.192 0.132
37.0445 -0.125 0.128
37.0517 0.125 0.131
37.0588 0.031 0.130
37.0660 0.044 0.130
37.0731 0.120 0.131
37.0803 -0.023 0.129
37.0874 0.095 0.131
37.0946 0.126 0.131
37.1017 0.007 0.129
37.1088 -0.111 0.128
37.1160 0.204 0.132
37.1231 0.135 0.131
37.1303 0.193 0.132
37.1374 -0.106 0.128
37.1446 0.040 0.130
37.1517 0.105 0.130
37.1589 0.279 0.133
37.1660 0.070 0.130
37.1732 -0.146 0.127
37.1803 -0.069 0.128
37.1874 -0.034 0.128
37.1946 0.060 0.130
37.2017 0.015 0.129
37.2089 0.157 0.131
37.2160 0.133 0.131
37.2232 0.182 0.131
37.2303 -0.060 0.128
37.2375 0.040 0.129
37.2446 0.055 0.130
37.2517 0.204 0.132
37.2589 0.215 0.132
37.2660 0.194 0.131
37.2732 0.320 0.133
37.2803 -0.142 0.127
37.2875 0.192 0.131
37.2946 0.026 0.129
37.3018 0.012 0.129
37.3089 0.158 0.131
37.3161 -0.039 0.128
37.3232 0.336 0.133
37.3303 -0.160 0.127
37.3375 -0.038 0.128
37.3446 0.125 0.130
37.3518 0.257 0.132
37.3589 0.213 0.132
37.3661 0.220 0.132
37.3732 0.050 0.129
37.3804 0.485 0.135
37.3875 0.252 0.132
37.3947 0.211 0.132
37.4018 0.107 0.130
37.4089 -0.038 0.128
37.4161 0.400 0.134
37.4232 0.001 0.129
37.4304 0.064 0.130
37.4375 -0.012 0.129
37.4447 0.231 0.132
37.4518 0.388 0.134
37.4590 0.100 0.130
37.4661 0.285 0.132
37.4732 0.174 0.131
37.4804 0.310 0.133
37.4875 0.144 0.131
37.4947 0.186 0.131
37.5018 -0.057 0.128
37.5090 0.152 0.131
37.5161 0.024 0.129
37.5233 0.111 0.130
37.5304 -0.055 0.128
37.5376 0.171 0.131
37.5447 0.165 0.131
37.5518 0.162 0.131
37.5590 0.173 0.131
37.5661 0.146 0.131
37.5733 0.122 0.130
37.5804 0.171 0.131
37.5876 0.026 0.129
37.5947 0.134 0.130
37.6019 0.166 0.131
37.6090 0.437 0.134
37.6162 0.233 0.132
37.6233 0.199 0.131
37.6304 0.060 0.129
37.6376 0.242 0.132
37.6447 0.148 0.131
37.6519 0.152 0.131
37.6590 0.202 0.131
37.6662 0.192 0.131
37.6733 0.071 0.129
37.6805 0.238 0.132
37.6876 0.083 0.130
37.6947 -0.014 0.128
37.7019 0.164 0.131
37.7090 0.088 0.130
37.7162 0.210 0.131
37.7233 0.304 0.132
37.7305 -0.004 0.128
37.7376 0.000 0.128
37.7448 0.275 0.132
37.7519 -0.085 0.127
37.7591 -0.112 0.127
37.7662 0.208 0.131
37.7733 0.226 0.131
37.7805 0.174 0.131
37.7876 -0.210 0.125
37.7948 0.200 0.131
37.8019 -0.060 0.128
37.8091 0.153 0.130
37.8162 0.185 0.131
37.8234 0.161 0.130
37.8305 0.172 0.131
37.8377 0.183 0.131
37.8448 0.125 0.130
37.8519 0.202 0.131
37.8591 0.147 0.130
37.8662 0.159 0.130
37.8734 0.319 0.132
37.8805 0.254 0.132
37.8877 -0.054 0.127
37.8948 0.002 0.128
37.9020 0.086 0.129
37.9091 0.194 0.131
37.9163 -0.044 0.128
37.9234 0.175 0.131
37.9305 0.131 0.130
37.9377 -0.028 0.128
37.9448 0.171 0.130
37.9520 0.286 0.132
37.9591 -0.047 0.127
37.9663 0.027 0.128
37.9734 0.038 0.129
37.9806 -0.054 0.127
37.9877 0.148 0.130
37.9948 0.281 0.132
38.0020 0.097 0.129
38.0091 -0.246 0.125
38.0163 0.078 0.129
38.0234 -0.053 0.127
38.0306 0.118 0.130
38.0377 0.039 0.129
38.0449 0.196 0.131
38.0520 0.211 0.131
38.0592 -0.003 0.128
38.0663 0.154 0.130
38.0734 0.172 0.130
38.0806 0.340 0.132
38.0877 0.091 0.129
38.0949 0.161 0.130
38.1020 -0.151 0.126
38.1092 0.229 0.131
38.1163 0.261 0.131
38.1235 0.005 0.128
38.1306 0.162 0.130
38.1378 0.090 0.129
38.1449 0.174 0.130
38.1520 -0.120 0.126
38.1592 0.110 0.129
38.1663 0.240 0.131
38.1735 0.133 0.130
38.1806 0.360 0.133
38.1878 0.100 0.129
38.1949 0.049 0.128
38.2021 0.411 0.133
38.2092 -0.004 0.128
38.2163 0.302 0.132
38.2235 0.164 0.130
38.2306 0.179 0.130
38.2378 0.146 0.130
38.2449 0.220 0.131
38.2521 0.495 0.134
38.2592 0.447 0.134
38.2664 0.546 0.135
38.2735 0.297 0.132
38.2807 0.402 0.133
38.2878 0.281 0.131
38.2949 0.460 0.134
38.3021 0.464 0.134
38.3092 0.392 0.133
38.3164 0.428 0.133
38.3235 0.502 0.134
38.3307 0.830 0.138
38.3378 0.556 0.135
38.3450 0.669 0.136
38.3521 0.520 0.134
38.3593 0.629 0.136
38.3664 0.484 0.134
38.3735 0.652 0.136
38.3807 0.761 0.137
38.3878 0.658 0.136
38.3950 0.722 0.137
38.4021 0.789 0.138
38.4093 0.811 0.138
38.4164 0.489 0.134
38.4236 0.733 0.137
38.4307 0.349 0.132
38.4378 0.697 0.136
38.4450 0.851 0.138
38.4521 0.665 0.136
38.4593 0.427 0.133
38.4664 0.848 0.138
38.4736 0.616 0.135
38.4807 0.677 0.136
38.4879 0.855 0.138
38.4950 0.755 0.137
38.5022 0.916 0.139
38.5093 0.720 0.137
38.5164 0.881 0.139
38.5236 0.809 0.138
38.5307 0.657 0.136
38.5379 1.200 0.142
38.5450 0.813 0.138
38.5522 0.939 0.139
38.5593 0.930 0.139
38.5665 0.803 0.137
38.5736 0.981 0.140
38.5808 1.309 0.144
38.5879 0.973 0.140
38.5950 0.954 0.139
38.6022 1.111 0.141
38.6093 1.456 0.145
38.6165 1.124 0.141
38.6236 1.216 0.142
38.6308 1.175 0.142
38.6379 1.208 0.142
38.6451 1.261 0.143
38.6522 1.134 0.141
38.6594 1.347 0.144
38.6665 0.814 0.137
38.6736 1.413 0.145
38.6808 1.650 0.148
38.6879 1.599 0.147
38.6951 1.479 0.145
38.7022 1.612 0.147
38.7094 1.732 0.148
38.7165 1.771 0.149
38.7237 1.599 0.147
38.7308 1.868 0.150
38.7379 2.043 0.152
38.7451 2.197 0.154
38.7522 2.174 0.153
38.7594 2.315 0.155
38.7665 2.663 0.159
38.7737 2.449 0.156
38.7808 2.843 0.161
38.7880 2.938 0.162
38.7951 2.860 0.161
38.8023 3.028 0.163
38.8094 3.168 0.164
38.8165 3.316 0.166
38.8237 3.400 0.167
38.8308 3.687 0.169
38.8380 3.914 0.172
38.8451 4.051 0.173
38.8523 4.240 0.175
38.8594 4.533 0.178
38.8666 4.229 0.175
38.8737 4.327 0.176
38.8809 4.451 0.177
38.8880 4.483 0.177
38.8951 3.971 0.172
38.9023 4.344 0.176
38.9094 4.286 0.175
38.9166 4.166 0.174
38.9237 4.217 0.175
38.9309 4.163 0.174
38.9380 4.171 0.174
38.9452 3.763 0.170
38.9523 3.942 0.172
38.9594 3.551 0.168
38.9666 3.702 0.169
38.9737 3.221 0.164
38.9809 3.052 0.163
38.9880 3.001 0.162
38.9952 2.711 0.159
39.0023 2.762 0.159
39.0095 2.239 0.154
39.0166 2.220 0.153
39.0238 2.117 0.152
39.0309 2.178 0.153
39.0380 1.968 0.150
39.0452 2.000 0.151
39.0523 2.058 0.151
39.0595 2.018 0.151
39.0666 2.113 0.152
39.0738 2.403 0.155
39.0809 1.936 0.150
39.0881 2.319 0.154
39.0952 1.946 0.150
39.1024 2.257 0.153
39.1095 1.981 0.150
39.1166 2.156 0.152
39.1238 2.258 0.153
39.1309 2.232 0.153
39.1381 2.230 0.153
39.1452 2.204 0.153
39.1524 2.081 0.151
39.1595 2.027 0.151
39.1667 1.814 0.148
39.1738 2.142 0.152
39.1809 2.098 0.151
39.1881 1.753 0.147
39.1952 1.616 0.146
39.2024 1.503 0.144
39.2095 1.390 0.143
39.2167 1.409 0.143
39.2238 0.897 0.137
39.2310 1.236 0.141
39.2381 1.053 0.139
39.2453 0.711 0.134
39.2524 0.904 0.137
39.2595 0.673 0.134
39.2667 0.574 0.133
39.2738 0.649 0.134
39.2810 0.491 0.131
39.2881 0.545 0.132
39.2953 0.286 0.129
39.3024 0.274 0.128
39.3096 0.373 0.130
39.3167 0.386 0.130
39.3239 0.314 0.129
39.3310 0.358 0.130
39.3381 0.224 0.128
39.3453 0.278 0.128
39.3524 0.207 0.127
39.3596 0.282 0.128
39.3667 0.298 0.129
39.3739 0.216 0.127
39.3810 0.072 0.125
39.3882 0.133 0.126
39.3953 0.010 0.125
39.4024 0.137 0.126
39.4096 -0.017 0.124
39.4167 0.051 0.125
39.4239 0.212 0.127
39.4310 0.176 0.127
39.4382 0.105 0.126
39.4453 0.093 0.125
39.4525 0.185 0.127
39.4596 0.024 0.124
39.4668 0.193 0.127
39.4739 0.115 0.126
39.4810 -0.005 0.124
39.4882 0.160 0.126
39.4953 -0.046 0.123
39.5025 0.025 0.124
39.5096 0.145 0.126
39.5168 0.060 0.125
39.5239 0.014 0.124
39.5311 -0.109 0.122
39.5382 -0.079 0.123
39.5454 -0.029 0.123
39.5525 0.029 0.124
39.5596 -0.122 0.122
39.5668 -0.059 0.123
39.5739 0.171 0.126
39.5811 -0.100 0.122
39.5882 0.214 0.127
39.5954 0.266 0.127
39.6025 0.079 0.125
39.6097 -0.080 0.123
39.6168 0.025 0.124
39.6240 0.102 0.125
39.6311 0.224 0.127
39.6382 0.086 0.125
39.6454 0.121 0.125
39.6525 0.156 0.126
39.6597 0.192 0.126
39.6668 0.196 0.126
39.6740 0.040 0.124
39.6811 0.044 0.124
39.6883 -0.056 0.123
39.6954 -0.007 0.123
39.7025 -0.065 0.123
39.7097 0.144 0.126
39.7168 0.020 0.124
39.7240 -0.247 0.120
39.7311 0.035 0.124
39.7383 0.095 0.125
39.7454 -0.106 0.122
39.7526 -0.081 0.122
39.7597 -0.053 0.123
39.7669 -0.111 0.122
39.7740 0.105 0.125
39.7811 0.067 0.124
39.7883 0.183 0.126
39.7954 -0.028 0.123
39.8026 0.142 0.125
39.8097 -0.086 0.122
39.8169 -0.200 0.121
39.8240 0.155 0.126
39.8312 0.069 0.124
39.8383 0.160 0.126
39.8455 0.185 0.126
39.8526 -0.075 0.122
39.8597 0.107 0.125
39.8669 0.066 0.124
39.8740 0.146 0.125
39.8812 -0.047 0.123
39.8883 -0.095 0.122
39.8955 0.076 0.124
39.9026 0.087 0.125
39.9098 0.109 0.125
39.9169 -0.019 0.123
39.9240 0.058 0.124
39.9312 0.094 0.125
39.9383 0.126 0.125
39.9455 0.220 0.126
39.9526 0.312 0.128
39.9598 0.059 0.124
39.9669 0.160 0.125
39.9741 0.054 0.124
39.9812 0.377 0.128
39.9884 0.274 0.127
39.9955 0.244 0.127
40.0026 0.179 0.126
40.0098 0.051 0.124
40.0169 0.118 0.125
40.0241 0.261 0.127
40.0312 0.186 0.126
40.0384 0.450 0.129
40.0455 0.476 0.130
40.0527 0.393 0.128
40.0598 0.550 0.131
40.0670 0.523 0.130
40.0741 0.337 0.128
40.0812 0.525 0.130
40.0884 0.637 0.132
40.0955 0.399 0.128
40.1027 0.233 0.126
40.1098 0.151 0.125
40.1170 0.266 0.127
40.1241 0.465 0.129
40.1313 0.421 0.129
40.1384 0.575 0.131
40.1455 0.176 0.125
40.1527 0.340 0.128
40.1598 0.442 0.129
40.1670 0.471 0.129
40.1741 0.500 0.130
40.1813 0.633 0.131
40.1884 0.915 0.135
40.1956 0.388 0.128
40.2027 0.587 0.131
40.2099 0.432 0.129
40.2170 0.450 0.129
40.2241 0.458 0.129
40.2313 0.487 0.129
40.2384 0.669 0.132
40.2456 0.624 0.131
40.2527 0.379 0.128
40.2599 0.745 0.133
40.2670 0.735 0.133
40.2742 0.504 0.130
40.2813 0.751 0.133
40.2885 0.478 0.129
40.2956 0.951 0.135
40.3027 0.630 0.131
40.3099 1.040 0.136
40.3170 0.885 0.134
40.3242 0.706 0.132
40.3313 0.648 0.131
40.3385 0.889 0.134
40.3456 0.956 0.135
40.3528 0.780 0.133
40.3599 0.954 0.135
40.3671 0.890 0.134
40.3742 1.040 0.136
40.3813 0.930 0.135
40.3885 1.212 0.138
40.3956 0.901 0.135
40.4028 0.916 0.135
40.4099 0.959 0.135
40.4171 1.116 0.137
40.4242 1.062 0.137
40.4314 1.272 0.139
40.4385 1.228 0.139
40.4456 1.493 0.142
40.4528 1.341 0.140
40.4599 1.537 0.142
40.4671 1.892 0.147
40.4742 1.789 0.145
40.4814 1.940 0.147
40.4885 2.090 0.149
40.4957 1.970 0.147
40.5028 2.440 0.153
40.5100 2.389 0.152
40.5171 2.217 0.150
40.5242 2.510 0.154
40.5314 2.889 0.158
40.5385 2.550 0.154
40.5457 2.746 0.156
40.5528 3.008 0.159
40.5600 2.929 0.158
40.5671 2.854 0.157
40.5743 3.182 0.161
40.5814 2.905 0.158
40.5886 2.796 0.157
40.5957 3.342 0.163
40.6028 3.465 0.164
40.6100 2.997 0.159
40.6171 3.294 0.162
40.6243 2.729 0.156
40.6314 2.988 0.159
40.6386 2.777 0.156
40.6457 2.563 0.154
40.6529 2.561 0.154
40.6600 2.417 0.152
40.6671 2.144 0.149
40.6743 2.291 0.151
40.6814 1.792 0.145
40.6886 1.787 0.145
40.6957 1.982 0.147
40.7029 1.647 0.143
40.7100 1.850 0.146
40.7172 1.490 0.141
40.7243 1.405 0.140
40.7315 1.483 0.141
40.7386 1.661 0.143
40.7457 1.187 0.137
40.7529 1.494 0.141
40.7600 1.474 0.141
40.7672 1.635 0.143
40.7743 1.547 0.142
40.7815 1.298 0.139
40.7886 1.511 0.141
40.7958 1.350 0.139
40.8029 1.677 0.143
40.8101 1.464 0.141
40.8172 1.649 0.143
40.8243 1.578 0.142
40.8315 1.767 0.144
40.8386 1.636 0.143
40.8458 1.589 0.142
40.8529 1.677 0.143
40.8601 1.714 0.144
40.8672 1.889 0.146
40.8744 1.869 0.145
40.8815 1.340 0.139
40.8886 1.508 0.141
40.8958 1.416 0.140
40.9029 1.334 0.139
40.9101 1.308 0.138
40.9172 1.292 0.138
40.9244 1.089 0.136
40.9315 0.861 0.133
40.9387 0.793 0.132
40.9458 0.684 0.130
40.9530 0.828 0.132
40.9601 0.701 0.130
40.9672 0.674 0.130
40.9744 0.502 0.128
40.9815 0.448 0.127
40.9887 0.221 0.124
40.9958 0.111 0.122
41.0030 0.314 0.125
41.0101 0.545 0.128
41.0173 0.158 0.123
41.0244 0.385 0.126
41.0316 0.394 0.126
41.0387 0.319 0.125
41.0458 0.342 0.125
41.0530 0.458 0.127
41.0601 0.196 0.123
41.0673 0.256 0.124
41.0744 0.338 0.125
41.0816 0.270 0.124
41.0887 0.261 0.124
41.0959 0.398 0.126
41.1030 0.025 0.121
41.1101 0.273 0.124
41.1173 0.341 0.125
41.1244 0.172 0.123
41.1316 0.174 0.123
41.1387 0.113 0.122
41.1459 0.202 0.123
41.1530 0.228 0.123
41.1602 0.157 0.122
41.1673 0.443 0.126
41.1745 0.386 0.126
41.1816 0.096 0.121
41.1887 0.292 0.124
41.1959 0.273 0.124
41.2030 0.084 0.121
41.2102 0.072 0.121
41.2173 0.174 0.122
41.2245 0.416 0.126
41.2316 0.345 0.125
41.2388 0.527 0.127
41.2459 0.317 0.124
41.2531 0.392 0.125
41.2602 0.369 0.125
41.2673 0.395 0.125
41.2745 0.400 0.125
41.2816 0.649 0.129
41.2888 0.477 0.126
41.2959 0.771 0.130
41.3031 0.710 0.130
41.3102 0.309 0.124
41.3174 0.505 0.127
41.3245 0.563 0.127
41.3317 0.606 0.128
41.3388 0.726 0.130
41.3459 0.797 0.131
41.3531 0.775 0.130
41.3602 0.589 0.128
41.3674 0.744 0.130
41.3745 0.666 0.129
41.3817 0.741 0.130
41.3888 0.941 0.132
41.3960 0.710 0.129
41.4031 0.889 0.132
41.4102 0.811 0.130
41.4174 0.681 0.129
41.4245 0.645 0.128
41.4317 0.459 0.126
41.4388 0.527 0.127
41.4460 0.536 0.127
41.4531 0.524 0.126
41.4603 0.359 0.124
41.4674 0.333 0.124
41.4746 0.172 0.121
41.4817 0.240 0.122
41.4888 0.141 0.121
41.4960 0.293 0.123
41.5031 0.312 0.123
41.5103 0.373 0.124
41.5174 0.326 0.123
41.5246 0.231 0.122
41.5317 0.230 0.122
41.5389 0.051 0.119
41.5460 0.324 0.123
41.5532 0.278 0.123
41.5603 0.530 0.126
41.5674 0.230 0.122
41.5746 0.238 0.122
41.5817 0.411 0.124
41.5889 0.479 0.125
41.5960 0.373 0.124
41.6032 0.111 0.120
41.6103 0.172 0.121
41.6175 0.459 0.125
41.6246 0.291 0.123
41.6317 0.286 0.122
41.6389 0.420 0.124
41.6460 0.443 0.125
41.6532 0.265 0.122
41.6603 0.500 0.125
41.6675 0.193 0.121
41.6746 0.476 0.125
41.6818 0.322 0.123
41.6889 0.119 0.120
41.6961 0.243 0.122
41.7032 0.113 0.120
41.7103 0.233 0.121
41.7175 0.367 0.123
41.7246 0.300 0.122
41.7318 0.135 0.120
41.7389 0.276 0.122
41.7461 -0.055 0.117
41.7532 0.034 0.118
41.7604 -0.005 0.118
41.7675 0.125 0.120
41.7747 0.201 0.121
41.7818 0.119 0.119
41.7889 -0.021 0.117
41.7961 0.027 0.118
41.8032 0.195 0.120
41.8104 -0.143 0.115
41.8175 0.249 0.121
41.8247 -0.051 0.117
41.8318 0.076 0.119
41.8390 -0.175 0.115
41.8461 -0.073 0.116
41.8532 -0.030 0.117
41.8604 0.162 0.120
41.8675 0.167 0.120
41.8747 0.102 0.119
41.8818 -0.035 0.117
41.8890 0.018 0.117
41.8961 0.259 0.121
41.9033 0.000 0.117
41.9104 -0.005 0.117
41.9176 0.236 0.121
41.9247 0.029 0.118
41.9318 -0.011 0.117
41.9390 -0.045 0.116
41.9461 0.262 0.121
41.9533 -0.017 0.117
41.9604 0.005 0.117
41.9676 -0.035 0.116
41.9747 0.060 0.118
41.9819 0.072 0.118
41.9890 0.091 0.118
41.9962 0.012 0.117
42.0033 0.101 0.118
42.0104 -0.124 0.115
42.0176 0.121 0.119
42.0247 0.213 0.120
42.0319 -0.011 0.117
42.0390 0.275 0.121
42.0462 0.245 0.120
42.0533 -0.052 0.116
42.0605 -0.314 0.112
42.0676 0.087 0.118
42.0748 0.071 0.118
42.0819 0.225 0.120
42.0890 0.115 0.118
42.0962 -0.195 0.114
42.1033 0.014 0.117
42.1105 -0.074 0.115
42.1176 -0.024 0.116
42.1248 0.155 0.119
42.1319 -0.097 0.115
42.1391 -0.269 0.112
42.1462 0.152 0.119
42.1533 -0.124 0.115
42.1605 0.128 0.118
42.1676 -0.089 0.115
42.1748 0.089 0.118
42.1819 0.292 0.121
42.1891 0.107 0.118
42.1962 0.164 0.119
42.2034 0.037 0.117
42.2105 -0.125 0.114
42.2177 0.058 0.117
42.2248 -0.114 0.114
42.2319 -0.107 0.115
42.2391 0.005 0.116
42.2462 -0.108 0.114
42.2534 -0.042 0.115
42.2605 0.008 0.116
42.2677 -0.096 0.115
42.2748 -0.008 0.116
42.2820 -0.073 0.115
42.2891 0.060 0.117
42.2963 -0.019 0.116
42.3034 0.221 0.119
42.3105 0.087 0.117
42.3177 0.275 0.120
42.3248 -0.043 0.115
42.3320 0.131 0.118
42.3391 0.066 0.117
42.3463 0.133 0.118
42.3534 0.009 0.116
42.3606 0.062 0.117
42.3677 -0.021 0.116
42.3748 0.161 0.118
42.3820 -0.220 0.113
42.3891 0.142 0.118
42.3963 0.032 0.116
42.4034 0.133 0.118
42.4106 0.041 0.116
42.4177 -0.115 0.114
42.4249 0.025 0.116
42.4320 0.082 0.117
42.4392 0.093 0.117
42.4463 0.236 0.119
42.4534 0.019 0.116
42.4606 -0.050 0.115
42.4677 0.198 0.119
42.4749 -0.051 0.115
42.4820 0.030 0.116
42.4892 -0.268 0.112
42.4963 -0.020 0.115
42.5035 0.192 0.118
42.5106 0.200 0.119
42.5178 -0.003 0.116
42.5249 0.248 0.119
42.5320 -0.067 0.115
42.5392 0.232 0.119
42.5463 0.070 0.117
42.5535 0.102 0.117
42.5606 0.329 0.120
42.5678 0.157 0.118
42.5749 0.279 0.120
42.5821 0.037 0.116
42.5892 0.136 0.117
42.5963 0.147 0.118
42.6035 0.061 0.116
42.6106 -0.115 0.114
42.6178 -0.013 0.115
42.6249 0.131 0.117
42.6321 0.048 0.116
42.6392 -0.114 0.114
42.6464 -0.086 0.114
42.6535 0.181 0.118
42.6607 0.243 0.119
42.6678 0.087 0.117
42.6749 -0.080 0.114
42.6821 -0.091 0.114
42.6892 0.037 0.116
42.6964 0.020 0.116
42.7035 0.110 0.117
42.7107 0.085 0.117
42.7178 0.019 0.116
42.7250 0.071 0.116
42.7321 -0.138 0.113
42.7393 -0.002 0.115
42.7464 0.018 0.116
42.7535 0.112 0.117
42.7607 0.028 0.116
42.7678 -0.003 0.115
42.7750 -0.100 0.114
42.7821 0.299 0.120
42.7893 0.042 0.116
42.7964 0.073 0.116
42.8036 -0.042 0.115
42.8107 0.013 0.116
42.8178 0.208 0.118
42.8250 0.100 0.117
42.8321 -0.077 0.114
42.8393 0.034 0.116
42.8464 0.047 0.116
42.8536 0.016 0.116
42.8607 0.134 0.117
42.8679 0.120 0.117
42.8750 0.102 0.117
42.8822 0.144 0.118
42.8893 -0.113 0.114
42.8964 0.033 0.116
42.9036 0.251 0.119
42.9107 0.220 0.119
42.9179 -0.065 0.114
42.9250 0.227 0.119
42.9322 0.060 0.116
42.9393 0.119 0.117
42.9465 -0.061 0.114
42.9536 0.116 0.117
42.9608 0.057 0.116
42.9679 0.161 0.118
42.9750 -0.013 0.115
42.9822 -0.110 0.114
42.9893 -0.114 0.114
42.9965 0.111 0.117
43.0036 -0.193 0.113
43.0108 0.053 0.116
43.0179 0.114 0.117
43.0251 0.182 0.118
43.0322 -0.035 0.115
43.0394 -0.005 0.115
43.0465 0.057 0.116
43.0536 0.264 0.119
43.0608 0.085 0.117
43.0679 0.279 0.120
43.0751 0.000 0.116
43.0822 0.012 0.116
43.0894 -0.055 0.115
43.0965 0.076 0.117
43.1037 0.210 0.119
43.1108 0.080 0.117
43.1179 0.273 0.120
43.1251 0.123 0.118
43.1322 0.222 0.119
43.1394 0.075 0.117
43.1465 0.040 0.116
43.1537 -0.024 0.115
43.1608 -0.057 0.115
43.1680 0.102 0.117
43.1751 0.122 0.118
43.1823 0.127 0.118
43.1894 0.099 0.117
43.1965 0.077 0.117
43.2037 0.225 0.119
43.2108 0.074 0.117
43.2180 0.000 0.116
43.2251 0.048 0.117
43.2323 0.203 0.119
43.2394 0.028 0.116
43.2466 -0.261 0.112
43.2537 0.078 0.117
43.2609 0.167 0.119
43.2680 0.131 0.118
43.2751 -0.071 0.115
43.2823 0.056 0.117
43.2894 0.062 0.117
43.2966 0.124 0.118
43.3037 0.063 0.117
43.3109 0.146 0.118
43.3180 0.284 0.120
43.3252 0.484 0.123
43.3323 0.087 0.118
43.3394 0.183 0.119
43.3466 0.081 0.117
43.3537 -0.024 0.116
43.3609 -0.077 0.115
43.3680 0.176 0.119
43.3752 0.119 0.118
43.3823 -0.076 0.115
43.3895 -0.182 0.114
43.3966 0.189 0.119
43.4038 0.125 0.118
43.4109 0.097 0.118
43.4180 0.082 0.118
43.4252 0.102 0.118
43.4323 0.128 0.118
43.4395 -0.011 0.116
43.4466 0.175 0.119
43.4538 0.084 0.118
43.4609 0.083 0.118
43.4681 0.047 0.117
43.4752 0.185 0.119
43.4824 0.021 0.117
43.4895 0.065 0.118
43.4966 0.127 0.118
43.5038 0.331 0.121
43.5109 0.288 0.121
43.5181 0.135 0.119
43.5252 -0.040 0.116
43.5324 0.105 0.118
43.5395 0.316 0.121
43.5467 0.204 0.120
43.5538 0.168 0.119
43.5609 0.275 0.121
43.5681 0.236 0.120
43.5752 0.051 0.117
43.5824 0.217 0.120
43.5895 0.345 0.122
43.5967 0.316 0.121
43.6038 0.190 0.120
43.6110 0.116 0.119
43.6181 0.345 0.122
43.6253 0.382 0.122
43.6324 0.503 0.124
43.6395 0.474 0.124
43.6467 0.352 0.122
43.6538 0.306 0.121
43.6610 0.600 0.125
43.6681 0.530 0.125
43.6753 0.751 0.128
43.6824 0.424 0.123
43.6896 0.781 0.128
43.6967 0.440 0.123
43.7039 0.696 0.127
43.7110 0.803 0.128
43.7181 0.962 0.130
43.7253 0.923 0.130
43.7324 0.829 0.129
43.7396 0.863 0.129
43.7467 0.876 0.129
43.7539 0.649 0.126
43.7610 1.003 0.131
43.7682 1.075 0.132
43.7753 0.845 0.129
43.7825 0.872 0.129
43.7896 1.118 0.133
43.7967 1.034 0.132
43.8039 1.030 0.131
43.8110 1.123 0.133
43.8182 1.334 0.135
43.8253 1.142 0.133
43.8325 1.301 0.135
43.8396 1.262 0.135
43.8468 1.203 0.134
43.8539 1.532 0.138
43.8610 1.198 0.134
43.8682 1.038 0.132
43.8753 1.527 0.138
43.8825 1.113 0.133
43.8896 1.501 0.138
43.8968 1.410 0.137
43.9039 1.229 0.134
43.9111 1.183 0.134
43.9182 1.193 0.134
43.9254 1.192 0.134
43.9325 1.268 0.135
43.9396 1.070 0.132
43.9468 1.343 0.136
43.9539 1.259 0.135
43.9611 1.307 0.135
43.9682 1.300 0.135
43.9754 1.320 0.135
43.9825 1.205 0.134
43.9897 1.239 0.134
43.9968 1.211 0.134
44.0040 1.505 0.138
44.0111 1.536 0.138
44.0182 1.567 0.139
44.0254 1.674 0.140
44.0325 1.795 0.141
44.0397 1.506 0.138
44.0468 1.867 0.142
44.0540 1.651 0.140
44.0611 1.762 0.141
44.0683 1.730 0.141
44.0754 1.827 0.142
44.0825 2.184 0.146
44.0897 1.947 0.143
44.0968 2.200 0.146
44.1040 2.116 0.145
44.1111 2.376 0.148
44.1183 2.331 0.148
44.1254 2.389 0.149
44.1326 2.622 0.151
44.1397 2.555 0.151
44.1469 2.735 0.153
44.1540 2.613 0.151
44.1611 2.960 0.155
44.1683 2.821 0.154
44.1754 3.171 0.158
44.1826 2.952 0.155
44.1897 3.198 0.158
44.1969 3.336 0.159
44.2040 3.607 0.162
44.2112 3.662 0.163
44.2183 3.252 0.158
44.2255 3.384 0.160
44.2326 3.699 0.163
44.2397 3.619 0.162
44.2469 3.827 0.165
44.2540 3.840 0.165
44.2612 3.778 0.164
44.2683 3.808 0.164
44.2755 4.075 0.167
44.2826 3.593 0.162
44.2898 3.596 0.162
44.2969 3.547 0.162
44.3040 3.578 0.162
44.3112 3.567 0.162
44.3183 3.480 0.161
44.3255 3.354 0.160
44.3326 3.188 0.158
44.3398 3.010 0.156
44.3469 2.788 0.153
44.3541 3.003 0.156
44.3612 2.784 0.153
44.3684 2.915 0.155
44.3755 2.856 0.154
44.3826 2.637 0.152
44.3898 3.029 0.156
44.3969 2.598 0.151
44.4041 2.817 0.154
44.4112 2.733 0.153
44.4184 2.552 0.151
44.4255 2.771 0.153
44.4327 2.743 0.153
44.4398 2.847 0.154
44.4470 2.673 0.152
44.4541 2.728 0.153
44.4612 2.759 0.153
44.4684 3.037 0.156
44.4755 3.082 0.157
44.4827 3.082 0.157
44.4898 2.922 0.155
44.4970 2.974 0.156
44.5041 3.244 0.159
44.5113 3.046 0.156
44.5184 3.077 0.157
44.5255 3.049 0.156
44.5327 3.015 0.156
44.5398 3.299 0.159
44.5470 3.309 0.159
44.5541 3.278 0.159
44.5613 3.202 0.158
44.5684 2.837 0.154
44.5756 2.917 0.155
44.5827 3.232 0.158
44.5899 2.781 0.153
44.5970 2.975 0.156
44.6041 3.003 0.156
44.6113 2.545 0.151
44.6184 2.742 0.153
44.6256 2.749 0.153
44.6327 2.478 0.150
44.6399 2.034 0.145
44.6470 2.093 0.145
44.6542 2.089 0.145
44.6613 1.822 0.142
44.6685 1.850 0.142
44.6756 1.311 0.136
44.6827 1.509 0.138
44.6899 1.370 0.136
44.6970 1.339 0.136
44.7042 1.346 0.136
44.7113 1.172 0.134
44.7185 0.898 0.130
44.7256 0.954 0.131
44.7328 1.117 0.133
44.7399 1.217 0.135
44.7471 0.835 0.130
44.7542 0.985 0.131
44.7613 0.891 0.130
44.7685 0.988 0.132
44.7756 0.922 0.131
44.7828 0.905 0.130
44.7899 1.037 0.132
44.7971 1.127 0.133
44.8042 0.683 0.127
44.8114 1.061 0.132
44.8185 1.013 0.132
44.8256 0.836 0.130
44.8328 0.871 0.130
44.8399 0.892 0.130
44.8471 1.135 0.133
44.8542 1.045 0.132
44.8614 1.208 0.134
44.8685 1.073 0.133
44.8757 0.843 0.130
44.8828 1.031 0.132
44.8900 0.955 0.131
44.8971 0.899 0.130
44.9042 0.792 0.129
44.9114 0.674 0.127
44.9185 0.851 0.130
44.9257 0.577 0.126
44.9328 0.726 0.128
44.9400 0.834 0.129
44.9471 0.668 0.127
44.9543 0.543 0.125
44.9614 0.519 0.125
44.9686 0.804 0.129
44.9757 0.665 0.127
44.9828 0.585 0.126
44.9900 0.551 0.126
44.9971 0.627 0.127
45.0043 0.523 0.125
45.0114 0.721 0.128
45.0186 0.499 0.125
45.0257 0.934 0.131
45.0329 0.778 0.129
45.0400 0.441 0.124
45.0471 0.618 0.126
45.0543 0.813 0.129
45.0614 0.598 0.126
45.0686 0.647 0.127
45.0757 0.689 0.127
45.0829 0.512 0.125
45.0900 0.363 0.123
45.0972 0.780 0.129
45.1043 0.818 0.129
45.1115 0.402 0.123
45.1186 0.611 0.126
45.1257 0.531 0.125
45.1329 0.733 0.128
45.1400 0.771 0.129
45.1472 0.702 0.128
45.1543 0.782 0.129
45.1615 0.758 0.128
45.1686 0.786 0.129
45.1758 0.818 0.129
45.1829 0.895 0.130
45.1901 0.923 0.131
45.1972 0.816 0.129
45.2043 1.021 0.132
45.2115 1.257 0.135
45.2186 1.042 0.132
45.2258 1.223 0.134
45.2329 0.849 0.130
45.2401 1.241 0.135
45.2472 0.964 0.131
45.2544 1.652 0.140
45.2615 1.315 0.136
45.2686 1.368 0.136
45.2758 1.479 0.138
45.2829 1.119 0.133
45.2901 1.546 0.138
45.2972 1.925 0.143
45.3044 1.471 0.138
45.3115 1.846 0.142
45.3187 1.312 0.136
45.3258 1.850 0.142
45.3330 1.781 0.141
45.3401 1.976 0.144
45.3472 1.838 0.142
45.3544 1.943 0.143
45.3615 2.106 0.145
45.3687 1.787 0.141
45.3758 2.097 0.145
45.3830 2.226 0.147
45.3901 2.462 0.149
45.3973 2.581 0.151
45.4044 2.533 0.150
45.4116 2.613 0.151
45.4187 2.933 0.155
45.4258 3.111 0.157
45.4330 3.142 0.157
45.4401 2.789 0.153
45.4473 3.494 0.161
45.4544 3.564 0.162
45.4616 3.735 0.164
45.4687 3.878 0.165
45.4759 3.833 0.165
45.4830 3.976 0.166
45.4902 4.265 0.169
45.4973 3.918 0.165
45.5044 4.363 0.170
45.5116 4.541 0.172
45.5187 4.764 0.174
45.5259 4.420 0.171
45.5330 4.213 0.168
45.5402 4.588 0.172
45.5473 4.964 0.176
45.5545 4.343 0.170
45.5616 5.021 0.177
45.5687 4.605 0.172
45.5759 4.723 0.174
45.5830 4.509 0.171
45.5902 4.537 0.172
45.5973 4.149 0.168
45.6045 4.167 0.168
45.6116 4.265 0.169
45.6188 4.154 0.168
45.6259 4.068 0.167
45.6331 4.128 0.167
45.6402 4.011 0.166
45.6473 3.976 0.166
45.6545 3.922 0.165
45.6616 3.870 0.165
45.6688 3.850 0.165
45.6759 4.142 0.168
45.6831 4.303 0.169
45.6902 4.394 0.170
45.6974 4.363 0.170
45.7045 4.475 0.171
45.7117 4.736 0.174
45.7188 4.727 0.174
45.7259 4.915 0.175
45.7331 4.697 0.173
45.7402 4.896 0.175
45.7474 5.421 0.180
45.7545 5.210 0.178
45.7617 5.648 0.182
45.7688 5.586 0.182
45.7760 5.344 0.180
45.7831 5.240 0.179
45.7902 5.658 0.183
45.7974 5.763 0.184
45.8045 5.653 0.182
45.8117 5.136 0.177
45.8188 5.592 0.182
45.8260 5.408 0.180
45.8331 5.118 0.177
45.8403 4.802 0.174
45.8474 4.567 0.172
45.8546 4.443 0.170
45.8617 4.430 0.170
45.8688 4.094 0.167
45.8760 3.581 0.161
45.8831 3.634 0.162
45.8903 3.253 0.158
45.8974 3.066 0.156
45.9046 2.911 0.154
45.9117 2.672 0.151
45.9189 2.708 0.152
45.9260 2.854 0.153
45.9332 2.352 0.148
45.9403 2.273 0.147
45.9474 2.225 0.146
45.9546 1.903 0.142
45.9617 2.314 0.147
45.9689 2.030 0.144
45.9760 2.218 0.146
45.9832 1.976 0.143
45.9903 2.102 0.145
45.9975 2.027 0.144
46.0046 2.031 0.144
46.0117 2.081 0.144
46.0189 2.023 0.143
46.0260 1.999 0.143
46.0332 2.223 0.146
46.0403 2.168 0.145
46.0475 2.249 0.146
46.0546 1.982 0.143
46.0618 2.563 0.150
46.0689 2.175 0.145
46.0761 2.090 0.144
46.0832 2.264 0.146
46.0903 2.296 0.147
46.0975 2.079 0.144
46.1046 2.000 0.143
46.1118 1.925 0.142
46.1189 1.953 0.142
46.1261 2.003 0.143
46.1332 1.685 0.139
46.1404 1.578 0.138
46.1475 1.388 0.135
46.1547 1.195 0.133
46.1618 1.439 0.136
46.1689 1.346 0.135
46.1761 1.045 0.131
46.1832 1.213 0.133
46.1904 0.929 0.129
46.1975 1.104 0.132
46.2047 0.983 0.130
46.2118 0.967 0.130
46.2190 0.614 0.125
46.2261 1.022 0.130
46.2332 0.807 0.128
46.2404 0.826 0.128
46.2475 0.903 0.129
46.2547 0.852 0.128
46.2618 0.631 0.125
46.2690 0.817 0.128
46.2761 0.661 0.125
46.2833 0.850 0.128
46.2904 0.952 0.129
46.2976 0.679 0.126
46.3047 0.812 0.127
46.3118 0.692 0.126
46.3190 0.734 0.126
46.3261 0.808 0.127
46.3333 1.081 0.131
46.3404 0.995 0.130
46.3476 0.937 0.129
46.3547 0.897 0.128
46.3619 1.051 0.131
46.3690 1.153 0.132
46.3762 0.942 0.129
46.3833 1.051 0.130
46.3904 1.024 0.130
46.3976 1.022 0.130
46.4047 1.048 0.130
46.4119 1.490 0.136
46.4190 1.137 0.132
46.4262 1.166 0.132
46.4333 1.198 0.132
46.4405 1.241 0.133
46.4476 1.302 0.134
46.4548 1.619 0.138
46.4619 1.395 0.135
46.4690 1.410 0.135
46.4762 1.369 0.134
46.4833 1.551 0.137
46.4905 1.539 0.137
46.4976 1.418 0.135
46.5048 1.680 0.138
46.5119 1.834 0.140
46.5191 1.718 0.139
46.5262 1.938 0.141
46.5333 1.467 0.136
46.5405 1.538 0.136
46.5476 1.667 0.138
46.5548 1.818 0.140
46.5619 1.708 0.139
46.5691 1.769 0.139
46.5762 1.492 0.136
46.5834 1.653 0.138
46.5905 1.655 0.138
46.5977 1.618 0.137
46.6048 1.796 0.140
46.6119 1.555 0.136
46.6191 1.671 0.138
46.6262 1.485 0.136
46.6334 1.455 0.135
46.6405 1.550 0.136
46.6477 2.090 0.143
46.6548 1.900 0.141
46.6620 1.922 0.141
46.6691 1.900 0.141
46.6763 1.595 0.137
46.6834 1.958 0.141
46.6905 1.828 0.140
46.6977 1.780 0.139
46.7048 1.695 0.138
46.7120 1.825 0.140
46.7191 1.663 0.138
46.7263 1.349 0.134
46.7334 1.309 0.133
46.7406 1.477 0.135
46.7477 1.214 0.132
46.7548 1.410 0.134
46.7620 1.290 0.133
46.7691 1.254 0.132
46.7763 1.109 0.130
46.7834 1.177 0.131
46.7906 1.074 0.130
46.7977 0.985 0.129
46.8049 0.966 0.128
46.8120 0.961 0.128
46.8192 0.851 0.127
46.8263 1.016 0.129
46.8334 0.660 0.124
46.8406 0.762 0.125
46.8477 0.882 0.127
46.8549 0.901 0.127
46.8620 0.885 0.127
46.8692 0.907 0.127
46.8763 0.864 0.127
46.8835 0.820 0.126
46.8906 0.961 0.128
46.8978 0.657 0.124
46.9049 0.794 0.126
46.9120 0.799 0.126
46.9192 0.821 0.126
46.9263 0.688 0.124
46.9335 0.668 0.124
46.9406 0.573 0.122
46.9478 0.713 0.124
46.9549 0.614 0.123
46.9621 0.776 0.125
46.9692 0.843 0.126
46.9763 0.592 0.123
46.9835 0.784 0.125
46.9906 0.741 0.125
46.9978 0.423 0.120
47.0049 0.852 0.126
47.0121 0.430 0.120
47.0192 0.671 0.123
47.0264 0.343 0.119
47.0335 0.470 0.121
47.0407 0.558 0.122
47.0478 0.220 0.117
47.0549 0.197 0.117
47.0621 0.213 0.117
47.0692 0.322 0.118
47.0764 0.171 0.116
47.0835 0.322 0.118
47.0907 0.057 0.114
47.0978 0.114 0.115
47.1050 0.248 0.117
47.1121 0.176 0.116
47.1193 0.015 0.114
47.1264 -0.094 0.112
47.1335 0.015 0.113
47.1407 0.191 0.116
47.1478 0.001 0.113
47.1550 -0.084 0.112
47.1621 0.130 0.115
47.1693 0.174 0.116
47.1764 0.116 0.115
47.1836 0.045 0.114
47.1907 0.106 0.115
47.1979 0.198 0.116
47.2050 0.061 0.114
47.2121 0.150 0.115
47.2193 -0.060 0.112
47.2264 0.126 0.115
47.2336 -0.036 0.112
47.2407 0.039 0.113
47.2479 0.010 0.113
47.2550 -0.037 0.112
47.2622 0.048 0.113
47.2693 -0.019 0.112
47.2764 -0.122 0.111
47.2836 0.022 0.113
47.2907 0.090 0.114
47.2979 0.098 0.114
47.3050 0.041 0.113
47.3122 0.150 0.115
47.3193 0.068 0.114
47.3265 0.008 0.113
47.3336 -0.012 0.112
47.3408 -0.302 0.108
47.3479 0.255 0.116
47.3550 -0.101 0.111
47.3622 -0.068 0.111
47.3693 0.184 0.115
47.3765 0.116 0.114
47.3836 0.097 0.114
47.3908 0.060 0.113
47.3979 -0.094 0.111
47.4051 0.157 0.115
47.4122 -0.022 0.112
47.4194 0.039 0.113
47.4265 0.204 0.115
47.4336 -0.024 0.112
47.4408 0.297 0.117
47.4479 0.139 0.114
47.4551 -0.147 0.110
47.4622 0.021 0.112
47.4694 0.235 0.116
47.4765 0.028 0.112
47.4837 0.009 0.112
47.4908 0.063 0.113
47.4979 -0.154 0.109
47.5051 0.170 0.114
47.5122 0.089 0.113
47.5194 0.077 0.113
47.5265 -0.012 0.112
47.5337 0.111 0.113
47.5408 -0.227 0.108
47.5480 0.052 0.113
47.5551 0.037 0.112
47.5623 0.156 0.114
47.5694 0.078 0.113
47.5765 0.209 0.115
47.5837 0.009 0.112
47.5908 -0.066 0.111
47.5980 0.273 0.116
47.6051 -0.041 0.111
47.6123 0.245 0.115
47.6194 0.094 0.113
47.6266 0.041 0.112
47.6337 -0.010 0.111
47.6409 0.082 0.113
47.6480 0.081 0.113
47.6551 0.072 0.112
47.6623 0.015 0.111
47.6694 0.322 0.116
47.6766 0.126 0.113
47.6837 -0.014 0.111
47.6909 0.088 0.113
47.6980 0.246 0.115
47.7052 -0.151 0.109
47.7123 -0.042 0.110
47.7194 0.065 0.112
47.7266 0.046 0.112
47.7337 -0.067 0.110
47.7409 -0.017 0.111
47.7480 0.135 0.113
47.7552 -0.079 0.110
47.7623 -0.007 0.111
47.7695 -0.009 0.111
47.7766 0.055 0.112
47.7838 0.068 0.112
47.7909 0.063 0.112
47.7980 0.002 0.111
47.8052 0.094 0.112
47.8123 0.263 0.115
47.8195 0.077 0.112
47.8266 -0.035 0.110
47.8338 0.033 0.111
47.8409 0.295 0.115
47.8481 0.141 0.113
47.8552 0.056 0.111
47.8624 0.273 0.115
47.8695 0.265 0.114
47.8766 0.135 0.112
47.8838 0.047 0.111
47.8909 -0.128 0.108
47.8981 -0.044 0.110
47.9052 -0.151 0.108
47.9124 0.155 0.113
47.9195 -0.149 0.108
47.9267 -0.002 0.110
47.9338 -0.203 0.107
47.9409 0.038 0.111
47.9481 0.164 0.113
47.9552 0.283 0.115
47.9624 -0.078 0.109
47.9695 -0.018 0.110
47.9767 0.153 0.113
47.9838 0.012 0.110
47.9910 0.183 0.113
47.9981 -0.250 0.106
48.0053 0.161 0.113
48.0124 -0.130 0.108
48.0195 -0.028 0.110
48.0267 0.282 0.114
48.0338 0.241 0.114
48.0410 0.211 0.113
48.0481 -0.111 0.108
48.0553 0.077 0.111
48.0624 0.151 0.112
48.0696 0.048 0.111
48.0767 0.129 0.112
48.0839 -0.023 0.110
48.0910 0.048 0.111
48.0981 0.122 0.112
48.1053 0.140 0.112
48.1124 0.086 0.111
48.1196 -0.226 0.106
48.1267 -0.084 0.108
48.1339 0.102 0.111
48.1410 0.122 0.112
48.1482 -0.029 0.109
48.1553 0.123 0.112
48.1625 0.032 0.110
48.1696 0.162 0.112
48.1767 0.175 0.113
48.1839 -0.180 0.107
48.1910 -0.042 0.109
48.1982 0.054 0.111
48.2053 -0.027 0.110
48.2125 -0.052 0.109
48.2196 0.138 0.112
48.2268 0.164 0.113
48.2339 -0.059 0.109
48.2410 0.055 0.111
48.2482 0.099 0.112
48.2553 0.153 0.113
48.2625 -0.046 0.109
48.2696 0.064 0.111
48.2768 -0.020 0.110
48.2839 -0.188 0.107
48.2911 0.190 0.113
48.2982 0.008 0.110
48.3054 0.163 0.113
48.3125 0.326 0.115
48.3196 0.220 0.114
48.3268 0.101 0.112
48.3339 -0.188 0.107
48.3411 0.162 0.113
48.3482 0.290 0.115
48.3554 0.261 0.114
48.3625 0.135 0.112
48.3697 0.273 0.115
48.3768 0.244 0.114
48.3840 0.309 0.115
48.3911 0.086 0.112
48.3982 0.099 0.112
48.4054 0.195 0.113
48.4125 0.344 0.116
48.4197 0.186 0.113
48.4268 0.154 0.113
48.4340 0.094 0.112
48.4411 -0.066 0.109
48.4483 -0.008 0.110
48.4554 -0.030 0.110
48.4625 0.192 0.114
48.4697 0.239 0.114
48.4768 0.266 0.115
48.4840 0.161 0.113
48.4911 0.171 0.113
48.4983 0.319 0.116
48.5054 0.225 0.114
48.5126 0.283 0.115
48.5197 0.397 0.117
48.5269 0.194 0.114
48.5340 0.402 0.117
48.5411 0.276 0.115
48.5483 0.234 0.114
48.5554 0.267 0.115
48.5626 0.340 0.116
48.5697 0.269 0.115
48.5769 0.362 0.116
48.5840 0.084 0.112
48.5912 0.246 0.115
48.5983 0.308 0.116
48.6055 0.324 0.116
48.6126 0.195 0.114
48.6197 0.333 0.116
48.6269 0.322 0.116
48.6340 0.189 0.114
48.6412 0.664 0.121
48.6483 0.355 0.116
48.6555 0.354 0.116
48.6626 0.256 0.115
48.6698 0.273 0.115
48.6769 0.348 0.116
48.6840 0.514 0.119
48.6912 0.434 0.118
48.6983 0.443 0.118
48.7055 0.394 0.117
48.7126 0.331 0.116
48.7198 0.441 0.118
48.7269 0.406 0.117
48.7341 0.329 0.116
48.7412 0.689 0.121
48.7484 0.446 0.118
48.7555 0.591 0.120
48.7626 0.403 0.117
48.7698 0.339 0.116
48.7769 0.658 0.121
48.7841 0.630 0.121
48.7912 0.692 0.121
48.7984 0.837 0.123
48.8055 1.017 0.126
48.8127 0.676 0.121
48.8198 0.505 0.119
48.8270 0.859 0.124
48.8341 0.806 0.123
48.8412 0.687 0.121
48.8484 0.933 0.125
48.8555 0.971 0.125
48.8627 1.106 0.127
48.8698 0.994 0.126
48.8770 1.063 0.127
48.8841 1.135 0.128
48.8913 0.937 0.125
48.8984 1.054 0.127
48.9056 1.429 0.132
48.9127 1.158 0.128
48.9198 1.494 0.133
48.9270 1.445 0.132
48.9341 1.493 0.133
48.9413 1.339 0.131
48.9484 1.485 0.132
48.9556 1.536 0.133
48.9627 1.393 0.131
48.9699 1.525 0.133
48.9770 1.511 0.133
48.9841 1.496 0.133
48.9913 1.367 0.131
48.9984 1.450 0.132
49.0056 1.592 0.134
49.0127 1.487 0.133
49.0199 1.282 0.130
49.0270 1.375 0.131
49.0342 1.323 0.130
49.0413 1.183 0.129
49.0485 1.037 0.127
49.0556 1.113 0.128
49.0627 0.943 0.125
49.0699 0.841 0.124
49.0770 0.917 0.125
49.0842 0.716 0.122
49.0913 0.917 0.125
49.0985 0.906 0.125
49.1056 0.829 0.124
49.1128 0.707 0.122
49.1199 0.606 0.121
49.1271 0.911 0.125
49.1342 0.564 0.120
49.1413 0.601 0.120
49.1485 0.483 0.119
49.1556 0.507 0.119
49.1628 0.704 0.122
49.1699 0.569 0.120
49.1771 0.655 0.121
49.1842 0.453 0.118
49.1914 0.529 0.119
49.1985 0.529 0.119
49.2056 0.664 0.121
49.2128 0.751 0.123
49.2199 0.577 0.120
49.2271 0.670 0.122
49.2342 0.739 0.123
49.2414 0.708 0.122
49.2485 0.791 0.123
49.2557 0.752 0.123
49.2628 0.613 0.121
49.2700 0.832 0.124
49.2771 0.842 0.124
49.2842 0.720 0.122
49.2914 0.803 0.123
49.2985 0.612 0.121
49.3057 0.535 0.120
49.3128 0.539 0.120
49.3200 0.552 0.120
49.3271 0.868 0.124
49.3343 0.465 0.119
49.3414 0.586 0.120
49.3486 0.614 0.121
49.3557 0.558 0.120
49.3628 0.468 0.119
49.3700 0.360 0.117
49.3771 0.450 0.118
49.3843 0.582 0.120
49.3914 0.425 0.118
49.3986 0.185 0.114
49.4057 0.279 0.116
49.4129 0.362 0.117
49.4200 0.223 0.115
49.4271 -0.006 0.112
49.4343 0.233 0.115
49.4414 0.379 0.117
49.4486 0.275 0.116
49.4557 0.049 0.112
49.4629 0.056 0.113
49.4700 0.219 0.115
49.4772 0.375 0.117
49.4843 0.090 0.113
49.4915 0.097 0.113
49.4986 0.138 0.114
49.5057 0.131 0.114
49.5129 0.267 0.116
49.5200 0.159 0.114
49.5272 0.121 0.114
49.5343 0.023 0.112
49.5415 0.016 0.112
49.5486 0.204 0.115
49.5558 0.224 0.115
49.5629 0.151 0.114
49.5701 0.110 0.113
49.5772 -0.015 0.111
49.5843 0.190 0.115
49.5915 0.054 0.113
49.5986 0.016 0.112
49.6058 0.172 0.114
49.6129 0.089 0.113
49.6201 0.106 0.113
49.6272 0.200 0.115
49.6344 0.137 0.114
49.6415 0.165 0.114
49.6486 0.075 0.113
49.6558 0.106 0.113
49.6629 0.242 0.115
49.6701 0.228 0.115
49.6772 0.235 0.115
49.6844 0.113 0.113
49.6915 0.148 0.114
49.6987 0.280 0.116
49.7058 0.117 0.113
49.7130 -0.032 0.111
49.7201 0.200 0.115
49.7272 0.311 0.116
49.7344 0.138 0.114
49.7415 0.273 0.116
49.7487 0.388 0.118
49.7558 0.360 0.117
49.7630 0.360 0.117
49.7701 0.395 0.118
49.7773 0.381 0.117
49.7844 0.586 0.120
49.7916 0.437 0.118
49.7987 0.517 0.119
49.8058 0.434 0.118
49.8130 0.472 0.119
49.8201 0.639 0.121
49.8273 0.296 0.116
49.8344 0.806 0.124
49.8416 0.483 0.119
49.8487 0.664 0.122
49.8559 0.609 0.121
49.8630 0.626 0.121
49.8702 0.658 0.121
49.8773 0.904 0.125
49.8844 1.023 0.127
49.8916 0.808 0.124
49.8987 0.766 0.123
49.9059 1.037 0.127
49.9130 1.034 0.127
49.9202 0.933 0.125
49.9273 0.892 0.125
49.9345 1.135 0.128
49.9416 1.184 0.129
49.9487 1.400 0.132
49.9559 1.285 0.130
49.9630 1.351 0.131
49.9702 1.341 0.131
49.9773 1.428 0.132
49.9845 1.484 0.133
49.9916 1.748 0.136
49.9988 1.641 0.135
50.0059 1.426 0.132
50.0131 1.607 0.134
50.0202 1.767 0.136
50.0273 1.704 0.136
50.0345 1.628 0.135
50.0416 1.889 0.138
50.0488 1.567 0.134
50.0559 1.713 0.136
50.0631 1.998 0.139
50.0702 1.661 0.135
50.0774 1.717 0.136
50.0845 1.756 0.136
50.0917 1.589 0.134
50.0988 1.569 0.134
50.1059 1.500 0.133
50.1131 1.462 0.132
50.1202 1.459 0.132
50.1274 1.643 0.135
50.1345 1.428 0.132
50.1417 1.505 0.133
50.1488 1.564 0.134
50.1560 1.492 0.133
50.1631 1.364 0.131
50.1702 1.343 0.131
50.1774 1.622 0.134
50.1845 1.487 0.133
50.1917 1.636 0.135
50.1988 1.314 0.130
50.2060 1.585 0.134
50.2131 2.075 0.140
50.2203 1.836 0.137
50.2274 1.958 0.139
50.2346 1.910 0.138
50.2417 2.066 0.140
50.2488 2.115 0.141
50.2560 2.008 0.139
50.2631 2.207 0.142
50.2703 2.426 0.144
50.2774 2.499 0.145
50.2846 2.510 0.145
50.2917 2.959 0.151
50.2989 2.539 0.146
50.3060 2.866 0.149
50.3132 3.002 0.151
50.3203 3.110 0.152
50.3274 2.961 0.151
50.3346 3.649 0.158
50.3417 3.341 0.155
50.3489 3.216 0.153
50.3560 3.633 0.158
50.3632 3.790 0.160
50.3703 3.652 0.158
50.3775 3.781 0.160
50.3846 3.931 0.161
50.3917 3.959 0.162
50.3989 3.751 0.159
50.4060 3.669 0.158
50.4132 3.784 0.160
50.4203 3.451 0.156
50.4275 3.493 0.156
50.4346 3.213 0.153
50.4418 3.251 0.154
50.4489 3.370 0.155
50.4561 3.145 0.153
50.4632 3.080 0.152
50.4703 2.955 0.150
50.4775 2.966 0.150
50.4846 2.599 0.146
50.4918 2.724 0.148
50.4989 2.607 0.146
50.5061 2.504 0.145
50.5132 2.483 0.145
50.5204 2.467 0.145
50.5275 2.259 0.142
50.5347 2.465 0.145
50.5418 2.156 0.141
50.5489 2.146 0.141
50.5561 1.876 0.137
50.5632 1.662 0.134
50.5704 1.909 0.138
50.5775 2.108 0.140
50.5847 1.692 0.135
50.5918 2.067 0.140
50.5990 2.092 0.140
50.6061 2.010 0.139
50.6133 1.955 0.138
50.6204 1.862 0.137
50.6275 1.953 0.138
50.6347 1.940 0.138
50.6418 1.968 0.138
50.6490 1.983 0.138
50.6561 2.289 0.142
50.6633 2.273 0.142
50.6704 2.232 0.142
50.6776 2.264 0.142
50.6847 2.261 0.142
50.6918 2.304 0.142
50.6990 2.433 0.144
50.7061 2.361 0.143
50.7133 2.421 0.144
50.7204 2.383 0.143
50.7276 2.412 0.144
50.7347 2.065 0.139
50.7419 2.382 0.143
50.7490 1.963 0.138
50.7562 2.130 0.140
50.7633 1.985 0.138
50.7704 1.760 0.135
50.7776 1.817 0.136
50.7847 1.894 0.137
50.7919 1.489 0.132
50.7990 1.667 0.134
50.8062 1.463 0.132
50.8133 1.477 0.132
50.8205 1.409 0.131
50.8276 1.365 0.130
50.8348 1.154 0.127
50.8419 1.266 0.129
50.8490 1.301 0.129
50.8562 1.101 0.127
50.8633 1.091 0.126
50.8705 1.040 0.126
50.8776 0.840 0.123
50.8848 1.153 0.127
50.8919 0.942 0.124
50.8991 1.113 0.127
50.9062 0.746 0.122
50.9133 0.702 0.121
50.9205 0.901 0.124
50.9276 0.937 0.124
50.9348 0.955 0.124
50.9419 0.678 0.120
50.9491 0.766 0.122
50.9562 0.906 0.124
50.9634 0.883 0.123
50.9705 0.873 0.123
50.9777 0.982 0.125
50.9848 0.861 0.123
50.9919 0.932 0.124
50.9991 0.832 0.123
51.0062 0.979 0.125
51.0134 0.855 0.123
51.0205 0.953 0.124
51.0277 0.843 0.123
51.0348 1.000 0.125
51.0420 0.960 0.124
51.0491 0.843 0.123
51.0563 1.000 0.125
51.0634 0.817 0.122
51.0705 1.124 0.126
51.0777 1.128 0.127
51.0848 1.188 0.127
51.0920 1.047 0.125
51.0991 0.941 0.124
51.1063 0.973 0.124
51.1134 1.012 0.125
51.1206 0.690 0.120
51.1277 0.674 0.120
51.1348 0.950 0.124
51.1420 1.044 0.125
51.1491 1.063 0.125
51.1563 0.651 0.120
51.1634 0.951 0.124
51.1706 0.726 0.121
51.1777 0.828 0.122
51.1849 0.857 0.123
51.1920 0.841 0.122
51.1992 0.811 0.122
51.2063 0.780 0.121
51.2134 1.091 0.126
51.2206 0.956 0.124
51.2277 1.135 0.126
51.2349 1.091 0.126
51.2420 1.161 0.127
51.2492 1.052 0.125
51.2563 1.084 0.126
51.2635 1.085 0.126
51.2706 1.142 0.126
51.2778 1.372 0.129
51.2849 1.419 0.130
51.2920 1.010 0.124
51.2992 1.255 0.128
51.3063 1.259 0.128
51.3135 1.177 0.127
51.3206 1.335 0.129
51.3278 1.332 0.129
51.3349 1.247 0.128
51.3421 1.179 0.127
51.3492 1.315 0.128
51.3563 1.091 0.125
51.3635 1.040 0.125
51.3706 0.917 0.123
51.3778 0.845 0.122
51.3849 1.034 0.125
51.3921 0.868 0.122
51.3992 0.755 0.121
51.4064 0.756 0.121
51.4135 0.796 0.121
51.4207 0.790 0.121
51.4278 0.569 0.118
51.4349 0.665 0.119
51.4421 0.555 0.117
51.4492 0.476 0.116
51.4564 0.606 0.118
51.4635 0.760 0.120
51.4707 0.532 0.117
51.4778 0.395 0.115
51.4850 0.202 0.112
51.4921 0.446 0.116
51.4993 0.420 0.115
51.5064 0.369 0.115
51.5135 0.301 0.113
51.5207 0.459 0.116
51.5278 0.450 0.116
51.5350 0.673 0.119
51.5421 0.328 0.114
51.5493 0.666 0.119
51.5564 0.469 0.116
51.5636 0.256 0.113
51.5707 0.306 0.113
51.5779 0.335 0.114
51.5850 0.309 0.113
51.5921 0.595 0.118
51.5993 0.548 0.117
51.6064 0.754 0.120
51.6136 0.603 0.118
51.6207 0.517 0.116
51.6279 0.623 0.118
51.6350 0.541 0.117
51.6422 0.779 0.120
51.6493 0.461 0.115
51.6564 0.424 0.115
51.6636 0.544 0.117
51.6707 0.771 0.120
51.6779 0.502 0.116
51.6850 0.555 0.117
51.6922 0.692 0.119
51.6993 0.395 0.114
51.7065 0.303 0.113
51.7136 0.356 0.114
51.7208 0.525 0.116
51.7279 0.099 0.110
51.7350 0.392 0.114
51.7422 0.377 0.114
51.7493 0.232 0.112
51.7565 0.078 0.109
51.7636 0.024 0.108
51.7708 0.070 0.109
51.7779 0.239 0.112
51.7851 0.008 0.108
51.7922 0.263 0.112
51.7994 0.174 0.111
51.8065 -0.057 0.107
51.8136 0.080 0.109
51.8208 0.103 0.109
51.8279 -0.146 0.105
51.8351 -0.099 0.106
51.8422 0.038 0.108
51.8494 0.143 0.110
51.8565 0.235 0.111
51.8637 0.344 0.113
51.8708 0.102 0.109
51.8779 0.083 0.109
51.8851 -0.100 0.106
51.8922 -0.015 0.107
51.8994 -0.007 0.107
51.9065 0.224 0.111
51.9137 -0.021 0.107
51.9208 0.230 0.111
51.9280 0.090 0.109
51.9351 0.094 0.109
51.9423 0.033 0.108
51.9494 0.038 0.108
51.9565 0.088 0.109
51.9637 0.121 0.109
51.9708 0.192 0.110
51.9780 0.034 0.108
51.9851 0.091 0.109
51.9923 0.224 0.111
51.9994 0.115 0.109
52.0066 0.005 0.107
52.0137 0.212 0.110
52.0209 -0.061 0.106
52.0280 0.059 0.108
52.0351 0.168 0.110
52.0423 -0.029 0.107
52.0494 0.181 0.110
52.0566 -0.109 0.105
52.0637 0.052 0.108
52.0709 -0.064 0.106
52.0780 -0.069 0.106
52.0852 0.068 0.108
52.0923 0.090 0.108
52.0994 0.060 0.108
52.1066 -0.091 0.105
52.1137 0.140 0.109
52.1209 0.110 0.108
52.1280 -0.037 0.106
52.1352 -0.064 0.106
52.1423 -0.083 0.105
52.1495 0.051 0.107
52.1566 -0.045 0.106
52.1638 0.169 0.109
52.1709 -0.041 0.106
52.1780 0.026 0.107
52.1852 -0.118 0.105
52.1923 -0.026 0.106
52.1995 0.109 0.108
52.2066 0.257 0.111
52.2138 0.168 0.109
52.2209 0.174 0.109
52.2281 0.072 0.108
52.2352 0.026 0.107
52.2424 -0.087 0.105
52.2495 0.062 0.108
52.2566 0.175 0.109
52.2638 0.056 0.108
52.2709 -0.071 0.106
52.2781 0.202 0.110
52.2852 0.010 0.107
52.2924 0.078 0.108
52.2995 -0.079 0.105
52.3067 -0.046 0.106
52.3138 0.064 0.108
52.3210 -0.055 0.106
52.3281 0.197 0.110
52.3352 -0.064 0.106
52.3424 -0.062 0.106
52.3495 0.027 0.107
52.3567 0.082 0.108
52.3638 0.077 0.108
52.3710 0.048 0.108
52.3781 -0.005 0.107
52.3853 0.035 0.108
52.3924 -0.091 0.106
52.3995 -0.022 0.107
52.4067 -0.017 0.107
52.4138 0.125 0.109
52.4210 -0.137 0.105
52.4281 0.154 0.110
52.4353 -0.073 0.106
52.4424 -0.130 0.105
52.4496 0.150 0.110
52.4567 0.094 0.109
52.4639 0.068 0.108
52.4710 -0.020 0.107
52.4781 0.080 0.109
52.4853 -0.043 0.107
52.4924 0.116 0.109
52.4996 0.181 0.110
52.5067 0.055 0.108
52.5139 0.005 0.107
52.5210 0.129 0.109
52.5282 -0.011 0.107
52.5353 0.023 0.108
52.5425 -0.016 0.107
52.5496 -0.115 0.106
52.5567 0.015 0.108
52.5639 0.204 0.111
52.5710 0.025 0.108
52.5782 0.089 0.109
52.5853 0.084 0.109
52.5925 0.113 0.110
52.5996 -0.011 0.108
52.6068 0.105 0.110
52.6139 0.201 0.111
52.6210 -0.044 0.108
52.6282 -0.067 0.107
52.6353 0.108 0.110
52.6425 -0.120 0.107
52.6496 -0.107 0.107
52.6568 0.041 0.109
52.6639 -0.026 0.109
52.6711 0.161 0.112
52.6782 0.069 0.110
52.6854 -0.050 0.109
52.6925 -0.092 0.108
52.6996 0.045 0.110
52.7068 0.190 0.113
52.7139 0.054 0.111
52.7211 -0.037 0.109
52.7282 0.243 0.114
52.7354 0.231 0.114
52.7425 -0.013 0.110
52.7497 0.149 0.113
52.7568 -0.022 0.110
52.7640 0.029 0.111
52.7711 0.261 0.115
52.7782 -0.202 0.108
52.7854 0.065 0.112
52.7925 -0.145 0.109
52.7997 -0.010 0.111
52.8068 0.079 0.113
52.8140 0.169 0.114
52.8211 0.036 0.112
52.8283 -0.128 0.110
52.8354 -0.054 0.111
52.8425 0.090 0.114
52.8497 0.029 0.114
52.8568 -0.112 0.112
52.8640 0.000 0.113
