'Id: "" Comment: "" Operator: "Lab Manager" Anode: "Mo" Scantype: "Coupled TwoTheta/Theta" TimePerStep: "1536" X: "9999" Y: "9999" Z: "9999" 
4.0000 0.000 0.268
4.0051 -0.268 0.268
4.0102 -1.156 0.266
4.0153 0.372 0.268
4.0204 0.821 0.269
4.0255 -0.027 0.268
4.0306 1.028 0.269
4.0357 1.167 0.269
4.0408 -0.430 0.267
4.0459 1.078 0.269
4.0510 1.894 0.270
4.0561 0.905 0.268
4.0612 1.784 0.270
4.0663 1.990 0.270
4.0715 1.492 0.269
4.0766 2.529 0.270
4.0817 2.711 0.270
4.0868 1.390 0.269
4.0919 3.016 0.271
4.0970 3.584 0.271
4.1021 2.323 0.270
4.1072 3.620 0.271
4.1123 3.528 0.271
4.1174 2.583 0.270
4.1225 4.491 0.272
4.1276 3.536 0.271
4.1327 3.157 0.271
4.1378 4.595 0.272
4.1429 4.817 0.272
4.1480 3.797 0.271
4.1531 5.258 0.273
4.1582 5.089 0.273
4.1633 4.940 0.272
4.1684 6.116 0.274
4.1735 5.676 0.273
4.1786 5.192 0.273
4.1837 6.171 0.274
4.1888 6.687 0.274
4.1939 5.567 0.273
4.1990 6.693 0.274
4.2041 7.172 0.275
4.2093 6.873 0.274
4.2144 7.457 0.275
4.2195 7.698 0.275
4.2246 7.339 0.275
4.2297 7.677 0.275
4.2348 8.171 0.276
4.2399 8.032 0.275
4.2450 8.514 0.276
4.2501 9.102 0.277
4.2552 8.553 0.276
4.2603 9.164 0.276
4.2654 9.912 0.277
4.2705 9.365 0.277
4.2756 10.279 0.278
4.2807 10.668 0.278
4.2858 9.428 0.277
4.2909 10.326 0.278
4.2960 11.501 0.279
4.3011 10.165 0.277
4.3062 11.123 0.278
4.3113 11.634 0.279
4.3164 10.755 0.278
4.3215 11.844 0.279
4.3266 12.398 0.280
4.3317 12.169 0.279
4.3368 12.557 0.280
4.3419 13.141 0.280
4.3471 12.496 0.280
4.3522 12.766 0.280
4.3573 14.019 0.281
4.3624 14.005 0.281
4.3675 13.976 0.281
4.3726 14.331 0.281
4.3777 14.456 0.282
4.3828 14.474 0.282
4.3879 15.353 0.283
4.3930 14.893 0.282
4.3981 15.145 0.282
4.4032 15.789 0.283
4.4083 15.837 0.283
4.4134 15.507 0.282
4.4185 16.767 0.284
4.4236 16.520 0.284
4.4287 16.551 0.284
4.4338 17.502 0.285
4.4389 17.134 0.284
4.4440 16.767 0.284
4.4491 18.177 0.285
4.4542 18.426 0.285
4.4593 18.055 0.285
4.4644 19.543 0.287
4.4695 18.889 0.286
4.4746 18.412 0.285
4.4797 19.476 0.286
4.4849 20.250 0.287
4.4900 19.597 0.286
4.4951 20.831 0.288
4.5002 20.762 0.288
4.5053 20.438 0.287
4.5104 21.692 0.289
4.5155 20.840 0.288
4.5206 20.886 0.288
4.5257 22.367 0.289
4.5308 22.776 0.290
4.5359 21.773 0.288
4.5410 23.005 0.290
4.5461 22.914 0.290
4.5512 22.976 0.290
4.5563 24.063 0.291
4.5614 24.254 0.291
4.5665 23.923 0.291
4.5716 24.894 0.292
4.5767 24.298 0.291
4.5818 24.259 0.291
4.5869 26.154 0.293
4.5920 26.340 0.293
4.5971 25.432 0.292
4.6022 27.179 0.294
4.6073 26.514 0.293
4.6124 26.483 0.293
4.6175 27.412 0.294
4.6227 27.560 0.294
4.6278 26.965 0.293
4.6329 28.656 0.295
4.6380 28.462 0.295
4.6431 28.026 0.294
4.6482 29.451 0.296
4.6533 29.065 0.296
4.6584 28.257 0.295
4.6635 30.145 0.297
4.6686 29.979 0.296
4.6737 29.383 0.296
4.6788 31.646 0.298
4.6839 31.183 0.298
4.6890 31.088 0.297
4.6941 31.986 0.298
4.6992 32.025 0.298
4.7043 31.501 0.298
4.7094 32.782 0.299
4.7145 32.813 0.299
4.7196 32.474 0.299
4.7247 34.224 0.301
4.7298 33.725 0.300
4.7349 32.636 0.299
4.7400 35.231 0.301
4.7451 35.057 0.301
4.7502 33.975 0.300
4.7553 36.497 0.303
4.7605 36.108 0.302
4.7656 35.356 0.301
4.7707 37.238 0.303
4.7758 36.243 0.302
4.7809 36.520 0.302
4.7860 37.420 0.303
4.7911 37.997 0.304
4.7962 37.156 0.303
4.8013 39.181 0.305
4.8064 39.018 0.305
4.8115 38.175 0.304
4.8166 40.103 0.306
4.8217 39.573 0.305
4.8268 38.879 0.305
4.8319 41.188 0.307
4.8370 41.203 0.307
4.8421 39.565 0.305
4.8472 41.896 0.308
4.8523 41.644 0.307
4.8574 40.876 0.306
4.8625 43.704 0.309
4.8676 43.266 0.309
4.8727 41.908 0.307
4.8778 43.983 0.310
4.8829 43.754 0.309
4.8880 42.831 0.308
4.8931 44.599 0.310
4.8983 45.288 0.311
4.9034 43.784 0.309
4.9085 46.159 0.312
4.9136 46.271 0.312
4.9187 44.730 0.310
4.9238 47.641 0.313
4.9289 47.147 0.312
4.9340 46.268 0.311
4.9391 48.104 0.313
4.9442 48.062 0.313
4.9493 47.750 0.313
4.9544 49.734 0.315
4.9595 48.954 0.314
4.9646 47.986 0.313
4.9697 50.488 0.315
4.9748 49.730 0.315
4.9799 49.247 0.314
4.9850 51.830 0.317
4.9901 51.084 0.316
4.9952 50.197 0.315
5.0003 52.626 0.317
5.0054 52.022 0.317
5.0105 50.673 0.315
5.0156 53.227 0.318
5.0207 53.322 0.318
5.0258 52.014 0.317
5.0309 54.643 0.319
5.0361 54.214 0.319
5.0412 53.405 0.318
5.0463 55.136 0.320
5.0514 55.402 0.320
5.0565 54.202 0.318
5.0616 56.319 0.321
5.0667 55.976 0.320
5.0718 55.010 0.319
5.0769 57.520 0.322
5.0820 57.062 0.321
5.0871 56.019 0.320
5.0922 58.511 0.323
5.0973 57.209 0.321
5.1024 56.492 0.320
5.1075 59.748 0.324
5.1126 59.342 0.323
5.1177 57.699 0.321
5.1228 60.537 0.324
5.1279 60.180 0.324
5.1330 58.650 0.322
5.1381 61.419 0.325
5.1432 61.538 0.325
5.1483 59.361 0.323
5.1534 62.281 0.326
5.1585 62.574 0.326
5.1636 61.084 0.324
5.1687 63.016 0.326
5.1739 62.980 0.326
5.1790 61.803 0.325
5.1841 64.062 0.327
5.1892 63.598 0.327
5.1943 62.753 0.326
5.1994 65.334 0.328
5.2045 64.997 0.328
5.2096 63.707 0.327
5.2147 65.686 0.329
5.2198 66.180 0.329
5.2249 64.414 0.327
5.2300 67.270 0.330
5.2351 66.706 0.329
5.2402 65.487 0.328
5.2453 67.650 0.330
5.2504 67.052 0.330
5.2555 65.885 0.328
5.2606 67.989 0.330
5.2657 68.421 0.331
5.2708 67.394 0.330
5.2759 69.290 0.332
5.2810 68.930 0.331
5.2861 67.837 0.330
5.2912 69.950 0.332
5.2963 70.360 0.332
5.3014 68.933 0.331
5.3065 70.011 0.332
5.3117 70.213 0.332
5.3168 70.344 0.332
5.3219 71.077 0.333
5.3270 71.670 0.333
5.3321 70.265 0.332
5.3372 71.646 0.333
5.3423 72.673 0.334
5.3474 71.367 0.333
5.3525 72.827 0.334
5.3576 73.346 0.335
5.3627 71.922 0.333
5.3678 73.466 0.335
5.3729 73.596 0.335
5.3780 73.266 0.335
5.3831 73.961 0.335
5.3882 74.997 0.336
5.3933 73.729 0.335
5.3984 75.012 0.336
5.4035 75.652 0.337
5.4086 74.215 0.335
5.4137 75.341 0.336
5.4188 76.110 0.337
5.4239 75.147 0.336
5.4290 75.835 0.337
5.4341 76.350 0.337
5.4392 75.635 0.336
5.4443 76.422 0.337
5.4495 77.303 0.338
5.4546 75.928 0.336
5.4597 77.249 0.338
5.4648 77.524 0.338
5.4699 77.038 0.337
5.4750 77.189 0.337
5.4801 78.248 0.338
5.4852 77.633 0.338
5.4903 78.029 0.338
5.4954 79.491 0.339
5.5005 78.539 0.338
5.5056 78.106 0.338
5.5107 79.411 0.339
5.5158 78.547 0.338
5.5209 78.515 0.338
5.5260 80.474 0.340
5.5311 78.933 0.339
5.5362 79.619 0.339
5.5413 79.787 0.339
5.5464 79.217 0.339
5.5515 78.730 0.338
5.5566 80.666 0.340
5.5617 79.948 0.339
5.5668 79.156 0.338
5.5719 81.670 0.341
5.5770 80.478 0.340
5.5821 80.561 0.340
5.5873 81.834 0.341
5.5924 80.653 0.340
5.5975 79.781 0.339
5.6026 82.225 0.341
5.6077 81.271 0.340
5.6128 80.248 0.339
5.6179 82.032 0.341
5.6230 81.064 0.340
5.6281 81.646 0.340
5.6332 81.861 0.340
5.6383 81.465 0.340
5.6434 80.695 0.339
5.6485 82.654 0.341
5.6536 82.145 0.341
5.6587 81.692 0.340
5.6638 83.062 0.341
5.6689 81.691 0.340
5.6740 82.028 0.340
5.6791 83.407 0.341
5.6842 82.692 0.341
5.6893 82.140 0.340
5.6944 83.578 0.342
5.6995 82.837 0.341
5.7046 81.747 0.340
5.7097 83.688 0.341
5.7148 82.557 0.340
5.7199 82.041 0.340
5.7251 83.686 0.341
5.7302 82.761 0.340
5.7353 82.745 0.340
5.7404 83.160 0.341
5.7455 82.377 0.340
5.7506 82.359 0.340
5.7557 83.866 0.341
5.7608 83.352 0.341
5.7659 81.877 0.339
5.7710 84.337 0.341
5.7761 82.724 0.340
5.7812 82.514 0.340
5.7863 84.233 0.341
5.7914 82.815 0.340
5.7965 83.054 0.340
5.8016 83.572 0.340
5.8067 83.518 0.340
5.8118 82.300 0.339
5.8169 83.964 0.341
5.8220 82.971 0.340
5.8271 81.865 0.339
5.8322 84.384 0.341
5.8373 82.603 0.339
5.8424 81.764 0.338
5.8475 83.757 0.340
5.8526 82.586 0.339
5.8577 81.795 0.338
5.8629 83.416 0.340
5.8680 81.817 0.338
5.8731 81.640 0.338
5.8782 84.283 0.340
5.8833 82.416 0.339
5.8884 81.755 0.338
5.8935 83.259 0.339
5.8986 83.161 0.339
5.9037 81.277 0.337
5.9088 83.209 0.339
5.9139 81.952 0.338
5.9190 80.933 0.337
5.9241 82.729 0.338
5.9292 81.522 0.337
5.9343 81.152 0.337
5.9394 82.682 0.338
5.9445 82.497 0.338
5.9496 80.490 0.336
5.9547 82.209 0.338
5.9598 81.948 0.337
5.9649 80.787 0.336
5.9700 82.717 0.338
5.9751 81.077 0.336
5.9802 80.093 0.335
5.9853 82.025 0.337
5.9904 81.331 0.336
5.9955 80.049 0.335
6.0007 80.792 0.336
6.0058 80.255 0.335
6.0109 79.312 0.334
6.0160 81.058 0.336
6.0211 80.375 0.335
6.0262 79.376 0.334
6.0313 81.046 0.336
6.0364 80.129 0.335
6.0415 79.039 0.334
6.0466 80.731 0.335
6.0517 79.651 0.334
6.0568 78.131 0.333
6.0619 80.154 0.335
6.0670 79.088 0.333
6.0721 78.442 0.333
6.0772 80.122 0.334
6.0823 79.327 0.334
6.0874 77.041 0.331
6.0925 80.275 0.334
6.0976 79.228 0.333
6.1027 77.209 0.331
6.1078 79.202 0.333
6.1129 78.442 0.332
6.1180 76.650 0.331
6.1231 78.844 0.333
6.1282 77.592 0.331
6.1333 76.469 0.330
6.1385 78.307 0.332
6.1436 77.798 0.331
6.1487 76.525 0.330
6.1538 77.838 0.331
6.1589 77.224 0.331
6.1640 75.337 0.329
6.1691 77.312 0.331
6.1742 76.623 0.330
6.1793 74.761 0.328
6.1844 77.058 0.330
6.1895 75.835 0.329
6.1946 74.444 0.328
6.1997 76.171 0.329
6.2048 75.464 0.328
6.2099 73.776 0.327
6.2150 76.185 0.329
6.2201 75.030 0.328
6.2252 72.616 0.325
6.2303 76.145 0.329
6.2354 74.609 0.327
6.2405 72.866 0.326
6.2456 75.288 0.328
6.2507 73.606 0.326
6.2558 72.468 0.325
6.2609 74.165 0.327
6.2660 73.255 0.326
6.2711 71.582 0.324
6.2763 73.915 0.326
6.2814 73.082 0.325
6.2865 71.135 0.323
6.2916 73.239 0.325
6.2967 72.658 0.325
6.3018 71.030 0.323
6.3069 73.114 0.325
6.3120 72.255 0.324
6.3171 70.667 0.322
6.3222 71.874 0.324
6.3273 71.075 0.323
6.3324 69.413 0.321
6.3375 71.029 0.323
6.3426 70.890 0.322
6.3477 68.929 0.320
6.3528 70.834 0.322
6.3579 70.158 0.322
6.3630 69.232 0.321
6.3681 70.452 0.322
6.3732 69.891 0.321
6.3783 68.618 0.320
6.3834 69.446 0.321
6.3885 69.115 0.320
6.3936 68.149 0.319
6.3987 69.194 0.320
6.4038 68.261 0.319
6.4089 67.376 0.318
6.4141 68.703 0.319
6.4192 67.779 0.318
6.4243 66.965 0.318
6.4294 67.235 0.318
6.4345 67.424 0.318
6.4396 66.321 0.317
6.4447 66.952 0.317
6.4498 66.409 0.317
6.4549 66.481 0.317
6.4600 66.397 0.317
6.4651 66.533 0.317
6.4702 65.125 0.315
6.4753 65.819 0.316
6.4804 66.605 0.317
6.4855 64.694 0.314
6.4906 65.271 0.315
6.4957 65.402 0.315
6.5008 64.745 0.314
6.5059 65.076 0.315
6.5110 64.625 0.314
6.5161 63.106 0.312
6.5212 64.631 0.314
6.5263 64.296 0.314
6.5314 63.201 0.312
6.5365 63.702 0.313
6.5416 63.918 0.313
6.5467 62.325 0.311
6.5519 62.969 0.312
6.5570 63.291 0.312
6.5621 61.689 0.310
6.5672 62.209 0.311
6.5723 62.086 0.311
6.5774 61.695 0.310
6.5825 61.746 0.310
6.5876 61.984 0.310
6.5927 61.067 0.309
6.5978 60.694 0.309
6.6029 61.217 0.309
6.6080 60.552 0.309
6.6131 60.670 0.309
6.6182 61.410 0.310
6.6233 59.710 0.308
6.6284 59.694 0.308
6.6335 59.677 0.307
6.6386 58.774 0.306
6.6437 59.130 0.307
6.6488 59.720 0.307
6.6539 58.363 0.306
6.6590 58.275 0.306
6.6641 59.604 0.307
6.6692 58.195 0.305
6.6743 58.543 0.306
6.6794 58.269 0.305
6.6845 58.269 0.305
6.6897 56.872 0.304
6.6948 57.717 0.305
6.6999 57.522 0.304
6.7050 56.342 0.303
6.7101 57.273 0.304
6.7152 56.528 0.303
6.7203 55.793 0.302
6.7254 56.921 0.303
6.7305 56.092 0.302
6.7356 55.327 0.302
6.7407 55.984 0.302
6.7458 54.779 0.301
6.7509 55.127 0.301
6.7560 54.850 0.301
6.7611 54.700 0.301
6.7662 54.384 0.300
6.7713 54.298 0.300
6.7764 54.149 0.300
6.7815 53.317 0.299
6.7866 54.298 0.300
6.7917 53.752 0.299
6.7968 52.722 0.298
6.8019 54.189 0.300
6.8070 53.255 0.298
6.8121 51.541 0.297
6.8172 52.939 0.298
6.8223 52.742 0.298
6.8275 51.167 0.296
6.8326 52.473 0.297
6.8377 51.700 0.296
6.8428 51.238 0.296
6.8479 51.802 0.296
6.8530 51.638 0.296
6.8581 50.746 0.295
6.8632 51.633 0.296
6.8683 51.211 0.295
6.8734 50.217 0.294
6.8785 50.469 0.294
6.8836 50.528 0.294
6.8887 49.482 0.293
6.8938 50.525 0.294
6.8989 49.342 0.293
6.9040 48.330 0.292
6.9091 50.007 0.294
6.9142 49.214 0.293
6.9193 48.415 0.292
6.9244 49.424 0.293
6.9295 48.603 0.292
6.9346 48.113 0.291
6.9397 48.912 0.292
6.9448 48.306 0.291
6.9499 47.986 0.291
6.9550 48.324 0.291
6.9601 47.129 0.290
6.9653 46.691 0.289
6.9704 47.745 0.290
6.9755 47.158 0.290
6.9806 45.959 0.288
6.9857 47.346 0.290
6.9908 45.940 0.288
6.9959 45.599 0.287
7.0010 47.034 0.289
7.0061 45.733 0.287
7.0112 45.502 0.287
7.0163 46.171 0.288
7.0214 45.193 0.287
7.0265 44.106 0.285
7.0316 46.181 0.288
7.0367 45.015 0.286
7.0418 43.889 0.285
7.0469 45.236 0.286
7.0520 44.497 0.285
7.0571 43.819 0.285
7.0622 44.857 0.286
7.0673 43.642 0.284
7.0724 42.902 0.283
7.0775 44.254 0.285
7.0826 43.346 0.284
7.0877 42.552 0.283
7.0928 43.898 0.284
7.0979 42.699 0.283
7.1031 42.032 0.282
7.1082 42.747 0.283
7.1133 42.674 0.283
7.1184 41.301 0.281
7.1235 42.394 0.282
7.1286 42.356 0.282
7.1337 40.767 0.280
7.1388 42.027 0.281
7.1439 41.519 0.281
7.1490 40.378 0.279
7.1541 41.344 0.280
7.1592 40.609 0.279
7.1643 39.742 0.278
7.1694 40.741 0.279
7.1745 40.822 0.280
7.1796 39.593 0.278
7.1847 40.259 0.279
7.1898 39.135 0.277
7.1949 38.817 0.277
7.2000 40.192 0.278
7.2051 39.348 0.277
7.2102 37.855 0.276
7.2153 39.414 0.277
7.2204 38.742 0.276
7.2255 37.398 0.275
7.2306 38.958 0.277
7.2357 37.989 0.275
7.2409 37.942 0.275
7.2460 38.650 0.276
7.2511 37.772 0.275
7.2562 36.644 0.273
7.2613 38.279 0.275
7.2664 37.580 0.274
7.2715 36.280 0.273
7.2766 37.229 0.274
7.2817 36.817 0.273
7.2868 36.015 0.272
7.2919 37.140 0.273
7.2970 36.093 0.272
7.3021 35.598 0.271
7.3072 36.215 0.272
7.3123 35.774 0.272
7.3174 34.571 0.270
7.3225 36.216 0.272
7.3276 35.843 0.271
7.3327 34.641 0.270
7.3378 35.595 0.271
7.3429 35.144 0.270
7.3480 34.288 0.269
7.3531 35.115 0.270
7.3582 35.422 0.270
7.3633 33.623 0.268
7.3684 34.355 0.269
7.3735 34.381 0.269
7.3787 33.232 0.267
7.3838 34.331 0.269
7.3889 33.576 0.268
7.3940 32.643 0.267
7.3991 34.262 0.268
7.4042 33.523 0.267
7.4093 32.338 0.266
7.4144 33.668 0.267
7.4195 32.908 0.266
7.4246 31.705 0.265
7.4297 32.775 0.266
7.4348 32.711 0.266
7.4399 31.450 0.264
7.4450 32.527 0.266
7.4501 31.909 0.265
7.4552 31.160 0.264
7.4603 32.041 0.265
7.4654 31.527 0.264
7.4705 30.497 0.263
7.4756 31.685 0.264
7.4807 30.930 0.263
7.4858 30.069 0.262
7.4909 30.774 0.263
7.4960 30.759 0.263
7.5011 29.734 0.261
7.5062 30.533 0.262
7.5113 30.290 0.262
7.5165 29.136 0.260
7.5216 30.483 0.262
7.5267 30.211 0.261
7.5318 29.045 0.260
7.5369 29.805 0.261
7.5420 29.509 0.260
7.5471 28.697 0.259
7.5522 29.448 0.260
7.5573 29.316 0.260
7.5624 28.223 0.258
7.5675 28.761 0.259
7.5726 29.160 0.259
7.5777 27.992 0.258
7.5828 28.673 0.259
7.5879 28.466 0.258
7.5930 27.595 0.257
7.5981 27.746 0.257
7.6032 27.504 0.257
7.6083 27.065 0.256
7.6134 27.229 0.256
7.6185 28.273 0.258
7.6236 26.763 0.256
7.6287 27.449 0.256
7.6338 27.138 0.256
7.6389 26.196 0.255
7.6440 26.521 0.255
7.6491 26.309 0.255
7.6543 26.227 0.254
7.6594 26.167 0.254
7.6645 26.762 0.255
7.6696 25.813 0.254
7.6747 25.648 0.253
7.6798 26.134 0.254
7.6849 25.433 0.253
7.6900 25.295 0.253
7.6951 25.807 0.253
7.7002 24.944 0.252
7.7053 25.114 0.252
7.7104 25.586 0.253
7.7155 24.389 0.251
7.7206 24.400 0.251
7.7257 25.089 0.252
7.7308 24.431 0.251
7.7359 24.438 0.251
7.7410 24.295 0.250
7.7461 24.141 0.250
7.7512 23.647 0.249
7.7563 23.789 0.250
7.7614 23.364 0.249
7.7665 23.261 0.249
7.7716 23.761 0.249
7.7767 23.497 0.249
7.7818 23.087 0.248
7.7869 23.225 0.248
7.7921 22.729 0.248
7.7972 22.432 0.247
7.8023 23.626 0.249
7.8074 22.723 0.247
7.8125 21.944 0.246
7.8176 22.302 0.247
7.8227 22.044 0.246
7.8278 21.681 0.246
7.8329 21.733 0.245
7.8380 21.560 0.245
7.8431 21.570 0.245
7.8482 22.097 0.246
7.8533 21.391 0.245
7.8584 20.717 0.244
7.8635 21.195 0.244
7.8686 21.395 0.244
7.8737 20.248 0.243
7.8788 20.775 0.243
7.8839 20.432 0.243
7.8890 20.033 0.242
7.8941 20.130 0.242
7.8992 19.604 0.241
7.9043 19.619 0.241
7.9094 20.337 0.242
7.9145 19.749 0.241
7.9196 19.147 0.240
7.9247 19.808 0.241
7.9299 19.913 0.241
7.9350 18.937 0.240
7.9401 19.624 0.241
7.9452 19.001 0.240
7.9503 18.837 0.240
7.9554 19.100 0.240
7.9605 19.185 0.240
7.9656 17.657 0.238
7.9707 18.919 0.239
7.9758 18.299 0.238
7.9809 18.001 0.238
7.9860 18.135 0.238
7.9911 17.981 0.238
7.9962 17.770 0.237
8.0013 18.254 0.238
8.0064 17.506 0.237
8.0115 17.046 0.236
8.0166 17.979 0.237
8.0217 17.533 0.236
8.0268 17.228 0.236
8.0319 17.908 0.237
8.0370 17.026 0.235
8.0421 16.452 0.235
8.0472 17.549 0.236
8.0523 16.676 0.235
8.0574 16.265 0.234
8.0625 16.643 0.234
8.0677 16.909 0.235
8.0728 15.873 0.233
8.0779 16.367 0.234
8.0830 16.225 0.233
8.0881 15.548 0.232
8.0932 16.119 0.233
8.0983 15.852 0.233
8.1034 15.090 0.231
8.1085 15.586 0.232
8.1136 15.867 0.232
8.1187 14.910 0.231
8.1238 15.393 0.232
8.1289 15.124 0.231
8.1340 14.308 0.230
8.1391 15.636 0.232
8.1442 14.540 0.230
8.1493 13.693 0.229
8.1544 14.691 0.230
8.1595 15.203 0.231
8.1646 13.661 0.228
8.1697 15.023 0.230
8.1748 14.559 0.229
8.1799 13.959 0.228
8.1850 14.892 0.230
8.1901 14.862 0.229
8.1952 14.383 0.229
8.2003 15.269 0.230
8.2055 14.517 0.229
8.2106 13.693 0.227
8.2157 14.872 0.229
8.2208 15.020 0.229
8.2259 14.125 0.228
8.2310 15.101 0.229
8.2361 15.709 0.230
8.2412 14.967 0.229
8.2463 15.924 0.230
8.2514 15.789 0.230
8.2565 15.328 0.229
8.2616 16.396 0.230
8.2667 16.065 0.230
8.2718 15.855 0.229
8.2769 16.314 0.230
8.2820 16.258 0.230
8.2871 15.856 0.229
8.2922 16.892 0.230
8.2973 17.103 0.231
8.3024 16.411 0.229
8.3075 17.595 0.231
8.3126 17.860 0.231
8.3177 17.253 0.230
8.3228 18.609 0.232
8.3279 18.732 0.232
8.3330 18.415 0.232
8.3382 19.804 0.234
8.3433 19.745 0.233
8.3484 19.673 0.233
8.3535 21.743 0.236
8.3586 21.904 0.236
8.3637 22.275 0.236
8.3688 23.623 0.238
8.3739 24.678 0.240
8.3790 24.354 0.239
8.3841 26.509 0.242
8.3892 27.993 0.244
8.3943 28.216 0.244
8.3994 30.834 0.247
8.4045 32.623 0.250
8.4096 33.258 0.250
8.4147 37.076 0.255
8.4198 39.073 0.258
8.4249 41.101 0.260
8.4300 45.050 0.265
8.4351 48.676 0.269
8.4402 51.314 0.272
8.4453 56.932 0.279
8.4504 61.576 0.284
8.4555 66.026 0.289
8.4606 72.958 0.297
8.4657 77.415 0.301
8.4708 80.926 0.305
8.4760 87.153 0.312
8.4811 88.778 0.313
8.4862 86.951 0.311
8.4913 86.846 0.311
8.4964 81.292 0.305
8.5015 73.807 0.297
8.5066 68.765 0.291
8.5117 62.383 0.284
8.5168 56.271 0.277
8.5219 54.850 0.275
8.5270 52.399 0.272
8.5321 48.675 0.268
8.5372 47.784 0.266
8.5423 44.361 0.262
8.5474 39.406 0.256
8.5525 35.487 0.251
8.5576 29.709 0.243
8.5627 24.258 0.235
8.5678 21.046 0.231
8.5729 17.548 0.226
8.5780 14.522 0.221
8.5831 13.829 0.220
8.5882 12.349 0.218
8.5933 10.580 0.215
8.5984 10.698 0.215
8.6035 10.025 0.214
8.6086 8.797 0.212
8.6138 9.109 0.212
8.6189 8.404 0.211
8.6240 7.426 0.209
8.6291 8.010 0.210
8.6342 7.522 0.209
8.6393 6.909 0.208
8.6444 7.133 0.208
8.6495 6.963 0.208
8.6546 6.228 0.207
8.6597 6.564 0.207
8.6648 6.422 0.207
8.6699 5.493 0.205
8.6750 5.848 0.206
8.6801 6.046 0.206
8.6852 5.231 0.205
8.6903 5.571 0.205
8.6954 5.476 0.205
8.7005 4.836 0.204
8.7056 5.127 0.204
8.7107 4.933 0.204
8.7158 4.917 0.203
8.7209 4.634 0.203
8.7260 4.927 0.203
8.7311 4.794 0.203
8.7362 4.768 0.203
8.7413 4.467 0.202
8.7464 4.050 0.201
8.7516 4.231 0.201
8.7567 4.046 0.201
8.7618 4.052 0.201
8.7669 3.815 0.200
8.7720 4.551 0.201
8.7771 3.574 0.200
8.7822 3.735 0.200
8.7873 4.251 0.201
8.7924 4.017 0.200
8.7975 3.517 0.199
8.8026 3.995 0.200
8.8077 3.371 0.199
8.8128 3.236 0.198
8.8179 3.242 0.198
8.8230 2.875 0.198
8.8281 3.600 0.199
8.8332 3.278 0.198
8.8383 3.017 0.197
8.8434 3.157 0.197
8.8485 3.169 0.197
8.8536 2.661 0.196
8.8587 2.612 0.196
8.8638 3.105 0.197
8.8689 2.574 0.196
8.8740 2.452 0.196
8.8791 2.833 0.196
8.8842 2.475 0.195
8.8894 2.285 0.195
8.8945 2.939 0.196
8.8996 2.292 0.195
8.9047 2.324 0.195
8.9098 2.920 0.195
8.9149 2.642 0.195
8.9200 2.456 0.194
8.9251 2.389 0.194
8.9302 2.101 0.194
8.9353 2.163 0.194
8.9404 2.617 0.194
8.9455 1.920 0.193
8.9506 1.883 0.193
8.9557 2.114 0.193
8.9608 1.821 0.192
8.9659 1.775 0.192
8.9710 2.118 0.193
8.9761 1.810 0.192
8.9812 1.341 0.191
8.9863 1.887 0.192
8.9914 1.492 0.191
8.9965 1.355 0.191
9.0016 1.890 0.191
9.0067 1.875 0.191
9.0118 1.272 0.190
9.0169 1.637 0.191
9.0220 1.205 0.190
9.0272 1.098 0.189
9.0323 1.577 0.190
9.0374 1.010 0.189
9.0425 0.995 0.189
9.0476 1.644 0.190
9.0527 1.211 0.189
9.0578 1.304 0.189
9.0629 1.391 0.189
9.0680 1.136 0.188
9.0731 0.837 0.188
9.0782 1.242 0.188
9.0833 1.166 0.188
9.0884 0.876 0.187
9.0935 1.137 0.188
9.0986 0.983 0.187
9.1037 0.609 0.187
9.1088 1.185 0.187
9.1139 0.879 0.187
9.1190 0.405 0.186
9.1241 1.059 0.187
9.1292 1.042 0.187
9.1343 0.534 0.186
9.1394 1.351 0.187
9.1445 0.598 0.185
9.1496 0.622 0.185
9.1547 0.812 0.186
9.1598 0.617 0.185
9.1650 0.402 0.185
9.1701 0.699 0.185
9.1752 0.972 0.185
9.1803 0.251 0.184
9.1854 0.824 0.185
9.1905 0.722 0.184
9.1956 0.331 0.184
9.2007 0.681 0.184
9.2058 0.506 0.184
9.2109 -0.011 0.183
9.2160 0.788 0.184
9.2211 0.672 0.184
9.2262 0.043 0.182
9.2313 0.758 0.183
9.2364 0.795 0.183
9.2415 0.045 0.182
9.2466 0.417 0.182
9.2517 0.258 0.182
9.2568 -0.087 0.181
9.2619 0.389 0.182
9.2670 0.028 0.181
9.2721 -0.032 0.181
9.2772 0.438 0.182
9.2823 -0.001 0.181
9.2874 0.107 0.181
9.2925 0.243 0.181
9.2976 0.495 0.181
9.3028 -0.081 0.180
9.3079 0.667 0.181
9.3130 0.120 0.180
9.3181 -0.188 0.179
9.3232 0.627 0.181
9.3283 0.378 0.180
9.3334 -0.056 0.179
9.3385 0.401 0.180
9.3436 -0.087 0.179
9.3487 -0.247 0.178
9.3538 0.507 0.180
9.3589 0.404 0.179
9.3640 -0.110 0.178
9.3691 0.284 0.179
9.3742 -0.053 0.178
9.3793 -0.111 0.178
9.3844 0.379 0.179
9.3895 0.173 0.178
9.3946 0.018 0.178
9.3997 0.163 0.178
9.4048 0.190 0.178
9.4099 -0.158 0.177
9.4150 0.262 0.177
9.4201 0.168 0.177
9.4252 -0.379 0.176
9.4303 0.349 0.177
9.4354 0.041 0.176
9.4406 -0.349 0.176
9.4457 0.222 0.176
9.4508 0.329 0.177
9.4559 -0.346 0.175
9.4610 0.226 0.176
9.4661 -0.050 0.175
9.4712 -0.296 0.175
9.4763 0.363 0.176
9.4814 0.062 0.175
9.4865 -0.366 0.174
9.4916 0.673 0.176
9.4967 0.168 0.175
9.5018 -0.200 0.174
9.5069 0.479 0.175
9.5120 -0.001 0.174
9.5171 -0.436 0.173
9.5222 0.483 0.175
9.5273 0.126 0.174
9.5324 -0.472 0.173
9.5375 0.074 0.174
9.5426 -0.173 0.173
9.5477 -0.557 0.172
9.5528 0.459 0.174
9.5579 -0.087 0.173
9.5630 -0.249 0.172
9.5681 0.400 0.173
9.5732 0.216 0.173
9.5784 0.057 0.172
9.5835 0.323 0.173
9.5886 0.327 0.173
9.5937 -0.166 0.172
9.5988 0.326 0.172
9.6039 0.116 0.172
9.6090 -0.344 0.171
9.6141 0.483 0.172
9.6192 0.115 0.172
9.6243 -0.389 0.170
9.6294 0.560 0.172
9.6345 0.392 0.172
9.6396 -0.321 0.170
9.6447 -0.152 0.170
9.6498 0.060 0.171
9.6549 -0.165 0.170
9.6600 0.193 0.171
9.6651 0.128 0.170
9.6702 -0.651 0.169
9.6753 0.103 0.170
9.6804 0.187 0.170
9.6855 -0.478 0.169
9.6906 0.249 0.170
9.6957 -0.067 0.169
9.7008 -0.383 0.168
9.7059 0.061 0.169
9.7110 0.010 0.169
9.7162 -0.398 0.168
9.7213 0.041 0.169
9.7264 0.118 0.169
9.7315 -0.057 0.168
9.7366 0.217 0.169
9.7417 0.469 0.169
9.7468 -0.478 0.167
9.7519 0.250 0.168
9.7570 -0.024 0.168
9.7621 -0.075 0.168
9.7672 0.199 0.168
9.7723 0.021 0.168
9.7774 -0.062 0.167
9.7825 0.109 0.167
9.7876 -0.171 0.167
9.7927 0.222 0.167
9.7978 -0.066 0.167
9.8029 0.032 0.167
9.8080 -0.631 0.165
9.8131 0.197 0.167
9.8182 -0.215 0.166
9.8233 0.028 0.166
9.8284 -0.095 0.166
9.8335 -0.155 0.166
9.8386 -0.083 0.166
9.8437 0.088 0.166
9.8488 0.298 0.166
9.8540 -0.105 0.165
9.8591 -0.256 0.165
9.8642 0.098 0.165
9.8693 -0.172 0.165
9.8744 0.322 0.166
9.8795 0.171 0.165
9.8846 0.203 0.165
9.8897 -0.275 0.164
9.8948 -0.164 0.164
9.8999 -0.084 0.164
9.9050 -0.003 0.164
9.9101 0.175 0.165
9.9152 -0.165 0.164
9.9203 -0.177 0.164
9.9254 0.185 0.164
9.9305 0.382 0.165
9.9356 0.111 0.164
9.9407 0.012 0.164
9.9458 -0.085 0.163
9.9509 0.151 0.164
9.9560 0.010 0.163
9.9611 -0.039 0.163
9.9662 0.072 0.163
9.9713 -0.125 0.163
9.9764 -0.036 0.163
9.9815 -0.338 0.162
9.9866 0.182 0.163
9.9918 0.165 0.163
9.9969 -0.178 0.162
10.0020 0.172 0.163
10.0071 -0.162 0.162
10.0122 -0.221 0.162
10.0173 0.235 0.162
10.0224 -0.007 0.162
10.0275 0.012 0.162
10.0326 -0.229 0.161
10.0377 0.070 0.162
10.0428 -0.189 0.161
10.0479 0.069 0.162
10.0530 0.084 0.162
10.0581 0.043 0.161
10.0632 -0.110 0.161
10.0683 0.083 0.161
10.0734 -0.145 0.161
10.0785 0.113 0.161
10.0836 -0.009 0.161
10.0887 0.000 0.161
10.0938 0.108 0.161
10.0989 -0.082 0.160
10.1040 -0.160 0.160
10.1091 0.025 0.160
10.1142 0.239 0.161
10.1193 -0.154 0.160
10.1244 0.197 0.161
10.1296 0.126 0.160
10.1347 -0.302 0.159
10.1398 0.291 0.161
10.1449 -0.018 0.160
10.1500 0.025 0.160
10.1551 0.059 0.160
10.1602 -0.039 0.160
10.1653 -0.082 0.159
10.1704 0.202 0.160
10.1755 0.464 0.160
10.1806 -0.311 0.159
10.1857 0.131 0.160
10.1908 0.147 0.160
10.1959 -0.093 0.159
10.2010 0.285 0.160
10.2061 0.410 0.160
10.2112 -0.301 0.158
10.2163 0.069 0.159
10.2214 0.141 0.159
10.2265 -0.631 0.157
10.2316 -0.143 0.158
10.2367 -0.158 0.158
10.2418 -0.158 0.158
10.2469 0.103 0.159
10.2520 0.219 0.159
10.2571 -0.137 0.158
10.2622 0.342 0.159
10.2674 0.103 0.158
10.2725 0.032 0.158
10.2776 0.395 0.159
10.2827 0.036 0.158
10.2878 -0.143 0.158
10.2929 0.111 0.158
10.2980 0.206 0.158
10.3031 -0.175 0.158
10.3082 -0.052 0.158
10.3133 -0.058 0.158
10.3184 -0.289 0.157
10.3235 0.263 0.158
10.3286 -0.102 0.157
10.3337 -0.128 0.157
10.3388 0.381 0.158
10.3439 0.175 0.158
10.3490 -0.259 0.157
10.3541 0.194 0.158
10.3592 0.193 0.158
10.3643 -0.061 0.157
10.3694 0.267 0.158
10.3745 0.123 0.157
10.3796 -0.278 0.157
10.3847 0.319 0.158
10.3898 0.134 0.157
10.3949 -0.133 0.157
10.4000 0.057 0.157
10.4052 -0.194 0.156
10.4103 -0.065 0.157
10.4154 0.121 0.157
10.4205 -0.010 0.157
10.4256 0.277 0.157
10.4307 0.037 0.157
10.4358 -0.023 0.157
10.4409 -0.254 0.156
10.4460 0.456 0.157
10.4511 0.035 0.157
10.4562 0.002 0.156
10.4613 -0.156 0.156
10.4664 -0.135 0.156
10.4715 -0.310 0.156
10.4766 0.229 0.157
10.4817 -0.034 0.156
10.4868 -0.127 0.156
10.4919 0.186 0.157
10.4970 0.222 0.157
10.5021 -0.121 0.156
10.5072 0.187 0.156
10.5123 0.145 0.156
10.5174 -0.111 0.156
10.5225 0.301 0.157
10.5276 0.011 0.156
10.5327 -0.207 0.155
10.5378 -0.019 0.156
10.5430 -0.033 0.156
10.5481 -0.192 0.155
10.5532 0.329 0.156
10.5583 0.319 0.156
10.5634 0.043 0.156
10.5685 0.083 0.156
10.5736 0.068 0.156
10.5787 -0.033 0.156
10.5838 0.038 0.156
10.5889 0.154 0.156
10.5940 -0.250 0.155
10.5991 -0.155 0.155
10.6042 0.159 0.156
10.6093 -0.285 0.155
10.6144 -0.096 0.155
10.6195 -0.116 0.155
10.6246 -0.337 0.155
10.6297 0.277 0.156
10.6348 0.106 0.156
10.6399 -0.273 0.155
10.6450 0.031 0.155
10.6501 0.350 0.156
10.6552 -0.340 0.155
10.6603 0.015 0.155
10.6654 0.294 0.156
10.6705 -0.422 0.154
10.6756 0.086 0.155
10.6808 0.068 0.155
10.6859 -0.498 0.154
10.6910 -0.034 0.155
10.6961 0.087 0.155
10.7012 -0.354 0.154
10.7063 0.347 0.156
10.7114 0.163 0.155
10.7165 -0.143 0.155
10.7216 0.174 0.155
10.7267 0.347 0.156
10.7318 0.059 0.155
10.7369 -0.001 0.155
10.7420 0.107 0.155
10.7471 -0.166 0.155
10.7522 0.087 0.155
10.7573 0.325 0.156
10.7624 -0.206 0.155
10.7675 0.215 0.155
10.7726 -0.155 0.155
10.7777 -0.550 0.154
10.7828 0.235 0.155
10.7879 0.071 0.155
10.7930 -0.006 0.155
10.7981 0.075 0.155
10.8032 0.279 0.155
10.8083 0.194 0.155
10.8134 -0.165 0.155
10.8186 0.041 0.155
10.8237 -0.160 0.155
10.8288 0.127 0.155
10.8339 0.246 0.155
10.8390 -0.036 0.155
10.8441 0.054 0.155
10.8492 0.224 0.155
10.8543 -0.277 0.154
10.8594 -0.060 0.155
10.8645 0.008 0.155
10.8696 -0.105 0.155
10.8747 -0.194 0.154
10.8798 0.208 0.155
10.8849 -0.328 0.154
10.8900 0.206 0.155
10.8951 0.259 0.155
10.9002 -0.327 0.154
10.9053 0.088 0.155
10.9104 -0.154 0.154
10.9155 -0.268 0.154
10.9206 0.387 0.156
10.9257 0.031 0.155
10.9308 -0.014 0.155
10.9359 -0.041 0.155
10.9410 -0.127 0.154
10.9461 -0.153 0.154
10.9512 0.132 0.155
10.9564 0.191 0.155
10.9615 -0.089 0.155
10.9666 0.214 0.155
10.9717 0.336 0.155
10.9768 -0.258 0.154
10.9819 -0.111 0.155
10.9870 0.463 0.156
10.9921 -0.075 0.155
10.9972 -0.084 0.155
11.0023 0.026 0.155
11.0074 0.048 0.155
11.0125 0.012 0.155
11.0176 0.297 0.155
11.0227 -0.261 0.154
11.0278 0.169 0.155
11.0329 0.222 0.155
11.0380 -0.033 0.155
11.0431 -0.107 0.155
11.0482 0.264 0.155
11.0533 0.019 0.155
11.0584 -0.237 0.154
11.0635 0.461 0.156
11.0686 -0.032 0.155
11.0737 0.322 0.155
11.0788 0.094 0.155
11.0839 0.026 0.155
11.0890 0.160 0.155
11.0942 0.081 0.155
11.0993 -0.376 0.154
11.1044 -0.087 0.155
11.1095 0.189 0.155
11.1146 0.270 0.155
11.1197 -0.146 0.154
11.1248 0.157 0.155
11.1299 0.261 0.155
11.1350 0.028 0.155
11.1401 0.353 0.156
11.1452 -0.043 0.155
11.1503 0.116 0.155
11.1554 0.217 0.155
11.1605 0.109 0.155
11.1656 0.061 0.155
11.1707 0.102 0.155
11.1758 0.023 0.155
11.1809 0.008 0.155
11.1860 0.364 0.156
11.1911 0.087 0.155
11.1962 -0.068 0.155
11.2013 0.364 0.156
11.2064 0.349 0.156
11.2115 0.196 0.155
11.2166 0.433 0.156
11.2217 0.212 0.155
11.2268 0.063 0.155
11.2320 0.340 0.156
11.2371 0.279 0.156
11.2422 0.245 0.156
11.2473 0.240 0.156
11.2524 0.302 0.156
11.2575 0.014 0.155
11.2626 0.674 0.157
11.2677 0.262 0.156
11.2728 -0.245 0.155
11.2779 0.161 0.155
11.2830 0.622 0.156
11.2881 0.000 0.155
11.2932 0.499 0.156
11.2983 0.471 0.156
11.3034 0.255 0.156
11.3085 0.311 0.156
11.3136 0.226 0.156
11.3187 0.222 0.156
11.3238 0.471 0.156
11.3289 0.582 0.156
11.3340 0.058 0.155
11.3391 0.293 0.156
11.3442 0.473 0.156
11.3493 0.056 0.155
11.3544 0.670 0.157
11.3595 0.464 0.156
11.3646 0.075 0.155
11.3698 -0.047 0.155
11.3749 0.361 0.156
11.3800 0.426 0.156
11.3851 0.365 0.156
11.3902 0.631 0.157
11.3953 0.216 0.156
11.4004 0.553 0.157
11.4055 0.381 0.156
11.4106 0.184 0.156
11.4157 0.455 0.156
11.4208 0.399 0.156
11.4259 0.344 0.156
11.4310 0.950 0.157
11.4361 0.584 0.157
11.4412 0.382 0.156
11.4463 0.470 0.156
11.4514 0.598 0.157
11.4565 0.058 0.156
11.4616 0.755 0.157
11.4667 0.465 0.156
11.4718 0.224 0.156
11.4769 0.887 0.157
11.4820 0.410 0.156
11.4871 0.279 0.156
11.4922 0.632 0.157
11.4973 0.775 0.157
11.5024 0.296 0.156
11.5076 0.813 0.157
11.5127 0.559 0.157
11.5178 0.446 0.156
11.5229 0.929 0.157
11.5280 0.724 0.157
11.5331 0.265 0.156
11.5382 0.935 0.158
11.5433 0.951 0.158
11.5484 0.649 0.157
11.5535 0.929 0.158
11.5586 1.062 0.158
11.5637 0.282 0.156
11.5688 0.787 0.157
11.5739 0.853 0.157
11.5790 0.315 0.156
11.5841 0.769 0.157
11.5892 0.840 0.157
11.5943 0.596 0.157
11.5994 1.091 0.158
11.6045 0.391 0.156
11.6096 0.793 0.157
11.6147 1.159 0.158
11.6198 1.138 0.158
11.6249 0.691 0.157
11.6300 1.135 0.158
11.6351 1.078 0.158
11.6402 0.850 0.157
11.6454 1.280 0.158
11.6505 1.350 0.158
11.6556 0.893 0.158
11.6607 0.907 0.158
11.6658 1.205 0.158
11.6709 0.804 0.157
11.6760 1.249 0.158
11.6811 0.982 0.158
11.6862 0.669 0.157
11.6913 1.166 0.158
11.6964 1.230 0.158
11.7015 0.997 0.158
11.7066 1.158 0.158
11.7117 1.268 0.158
11.7168 0.946 0.158
11.7219 1.420 0.159
11.7270 1.287 0.158
11.7321 0.821 0.157
11.7372 1.223 0.158
11.7423 1.200 0.158
11.7474 0.852 0.158
11.7525 1.594 0.159
11.7576 1.537 0.159
11.7627 0.608 0.157
11.7678 1.590 0.159
11.7729 1.573 0.159
11.7780 1.129 0.158
11.7832 1.734 0.159
11.7883 1.222 0.158
11.7934 0.998 0.158
11.7985 1.643 0.159
11.8036 1.766 0.159
11.8087 1.206 0.158
11.8138 1.711 0.159
11.8189 1.615 0.159
11.8240 1.091 0.158
11.8291 1.738 0.159
11.8342 1.438 0.159
11.8393 1.329 0.159
11.8444 1.653 0.159
11.8495 1.377 0.159
11.8546 1.455 0.159
11.8597 1.792 0.159
11.8648 1.611 0.159
11.8699 1.305 0.158
11.8750 1.594 0.159
11.8801 1.434 0.159
11.8852 1.146 0.158
11.8903 2.047 0.160
11.8954 1.591 0.159
11.9005 1.152 0.158
11.9056 1.645 0.159
11.9107 1.841 0.160
11.9158 1.420 0.159
11.9210 2.117 0.160
11.9261 1.584 0.159
11.9312 1.381 0.159
11.9363 2.149 0.160
11.9414 2.004 0.160
11.9465 1.744 0.159
11.9516 2.029 0.160
11.9567 1.976 0.160
11.9618 1.589 0.159
11.9669 2.132 0.160
11.9720 2.071 0.160
11.9771 1.933 0.160
11.9822 1.614 0.159
11.9873 1.857 0.160
11.9924 1.954 0.160
11.9975 2.429 0.161
12.0026 2.374 0.161
12.0077 1.498 0.159
12.0128 2.577 0.161
12.0179 2.152 0.160
12.0230 2.306 0.161
12.0281 2.168 0.160
12.0332 2.072 0.160
12.0383 2.111 0.160
12.0434 2.155 0.160
12.0485 2.114 0.160
12.0536 2.331 0.161
12.0588 2.202 0.160
12.0639 2.382 0.161
12.0690 2.039 0.160
12.0741 2.354 0.161
12.0792 2.342 0.161
12.0843 2.011 0.160
12.0894 2.460 0.161
12.0945 2.358 0.161
12.0996 2.220 0.160
12.1047 2.368 0.161
12.1098 2.352 0.161
12.1149 2.452 0.161
12.1200 2.285 0.160
12.1251 2.640 0.161
12.1302 2.132 0.160
12.1353 2.380 0.161
12.1404 2.928 0.162
12.1455 2.569 0.161
12.1506 2.366 0.161
12.1557 2.527 0.161
12.1608 2.576 0.161
12.1659 2.211 0.160
12.1710 2.664 0.161
12.1761 2.575 0.161
12.1812 2.409 0.161
12.1863 2.860 0.162
12.1914 2.564 0.161
12.1966 2.565 0.161
12.2017 2.396 0.161
12.2068 2.730 0.161
12.2119 2.693 0.161
12.2170 2.702 0.161
12.2221 2.769 0.161
12.2272 2.623 0.161
12.2323 2.822 0.161
12.2374 2.713 0.161
12.2425 2.557 0.161
12.2476 2.954 0.162
12.2527 2.807 0.161
12.2578 2.607 0.161
12.2629 2.937 0.162
12.2680 2.786 0.161
12.2731 2.687 0.161
12.2782 3.126 0.162
12.2833 3.101 0.162
12.2884 2.608 0.161
12.2935 2.846 0.161
12.2986 2.934 0.162
12.3037 2.541 0.161
12.3088 2.986 0.162
12.3139 2.830 0.161
12.3190 2.728 0.161
12.3241 3.169 0.162
12.3292 3.417 0.162
12.3344 2.875 0.161
12.3395 3.041 0.162
12.3446 2.992 0.162
12.3497 2.615 0.161
12.3548 3.199 0.162
12.3599 3.184 0.162
12.3650 2.965 0.162
12.3701 2.991 0.162
12.3752 3.216 0.162
12.3803 2.994 0.162
12.3854 3.334 0.162
12.3905 3.029 0.162
12.3956 3.057 0.162
12.4007 3.379 0.162
12.4058 3.340 0.162
12.4109 2.904 0.161
12.4160 3.083 0.162
12.4211 2.990 0.162
12.4262 2.930 0.161
12.4313 3.745 0.163
12.4364 3.297 0.162
12.4415 2.798 0.161
12.4466 3.205 0.162
12.4517 3.359 0.162
12.4568 3.418 0.162
12.4619 3.537 0.163
12.4670 3.171 0.162
12.4722 3.073 0.162
12.4773 3.452 0.162
12.4824 3.393 0.162
12.4875 2.850 0.161
12.4926 3.505 0.162
12.4977 3.129 0.162
12.5028 3.063 0.162
12.5079 3.327 0.162
12.5130 3.441 0.162
12.5181 3.056 0.161
12.5232 3.456 0.162
12.5283 3.320 0.162
12.5334 2.928 0.161
12.5385 3.615 0.163
12.5436 3.330 0.162
12.5487 3.189 0.162
12.5538 3.570 0.162
12.5589 3.350 0.162
12.5640 3.124 0.162
12.5691 3.501 0.162
12.5742 3.288 0.162
12.5793 3.150 0.162
12.5844 3.743 0.163
12.5895 3.668 0.163
12.5946 3.044 0.161
12.5997 3.534 0.162
12.6048 3.732 0.163
12.6100 3.343 0.162
12.6151 3.642 0.162
12.6202 3.399 0.162
12.6253 3.509 0.162
12.6304 3.600 0.162
12.6355 3.451 0.162
12.6406 3.233 0.162
12.6457 3.518 0.162
12.6508 3.476 0.162
12.6559 3.197 0.161
12.6610 3.970 0.163
12.6661 3.941 0.163
12.6712 3.339 0.162
12.6763 3.681 0.162
12.6814 3.659 0.162
12.6865 3.381 0.162
12.6916 4.024 0.163
12.6967 4.127 0.163
12.7018 3.382 0.162
12.7069 3.801 0.163
12.7120 3.597 0.162
12.7171 3.584 0.162
12.7222 3.847 0.163
12.7273 4.005 0.163
12.7324 3.461 0.162
12.7375 3.842 0.163
12.7426 3.722 0.162
12.7478 3.569 0.162
12.7529 3.753 0.162
12.7580 3.648 0.162
12.7631 3.546 0.162
12.7682 3.841 0.162
12.7733 3.790 0.162
12.7784 3.555 0.162
12.7835 3.792 0.162
12.7886 3.791 0.162
12.7937 3.640 0.162
12.7988 4.057 0.163
12.8039 4.043 0.163
12.8090 3.587 0.162
12.8141 3.801 0.162
12.8192 3.859 0.162
12.8243 3.584 0.162
12.8294 4.011 0.163
12.8345 4.003 0.163
12.8396 3.417 0.161
12.8447 3.711 0.162
12.8498 4.079 0.163
12.8549 3.316 0.161
12.8600 4.074 0.163
12.8651 3.869 0.162
12.8702 3.476 0.161
12.8753 3.927 0.162
12.8804 3.955 0.162
12.8856 3.563 0.162
12.8907 3.861 0.162
12.8958 3.794 0.162
12.9009 3.382 0.161
12.9060 3.847 0.162
12.9111 3.923 0.162
12.9162 3.277 0.161
12.9213 3.932 0.162
12.9264 3.958 0.162
12.9315 3.697 0.162
12.9366 4.083 0.162
12.9417 4.030 0.162
12.9468 3.579 0.161
12.9519 3.997 0.162
12.9570 3.973 0.162
12.9621 3.498 0.161
12.9672 4.207 0.163
12.9723 3.778 0.162
12.9774 3.092 0.160
12.9825 3.882 0.162
12.9876 3.509 0.161
12.9927 3.403 0.161
12.9978 3.782 0.162
13.0029 3.735 0.162
13.0080 3.205 0.160
13.0131 3.738 0.162
13.0182 3.885 0.162
13.0234 3.143 0.160
13.0285 3.983 0.162
13.0336 3.898 0.162
13.0387 3.459 0.161
13.0438 3.789 0.162
13.0489 3.726 0.161
13.0540 3.635 0.161
13.0591 3.694 0.161
13.0642 3.905 0.162
13.0693 3.458 0.161
13.0744 4.056 0.162
13.0795 3.654 0.161
13.0846 3.304 0.160
13.0897 3.852 0.162
13.0948 3.602 0.161
13.0999 3.474 0.161
13.1050 3.709 0.161
13.1101 3.484 0.161
13.1152 3.704 0.161
13.1203 3.684 0.161
13.1254 3.700 0.161
13.1305 3.472 0.161
13.1356 3.711 0.161
13.1407 4.077 0.162
13.1458 3.698 0.161
13.1509 3.846 0.161
13.1560 3.828 0.161
13.1612 3.433 0.160
13.1663 3.712 0.161
13.1714 4.025 0.162
13.1765 3.703 0.161
13.1816 3.524 0.161
13.1867 3.678 0.161
13.1918 3.433 0.160
13.1969 3.581 0.161
13.2020 3.559 0.161
13.2071 3.610 0.161
13.2122 3.443 0.160
13.2173 4.101 0.162
13.2224 3.561 0.160
13.2275 3.306 0.160
13.2326 3.971 0.161
13.2377 3.727 0.161
13.2428 3.564 0.160
13.2479 3.615 0.160
13.2530 3.406 0.160
13.2581 3.842 0.161
13.2632 3.834 0.161
13.2683 3.471 0.160
13.2734 3.488 0.160
13.2785 3.766 0.161
13.2836 3.281 0.160
13.2887 3.401 0.160
13.2938 3.747 0.161
13.2990 3.431 0.160
13.3041 3.568 0.160
13.3092 3.579 0.160
13.3143 3.544 0.160
13.3194 3.354 0.160
13.3245 3.684 0.160
13.3296 3.646 0.160
13.3347 3.416 0.160
13.3398 3.490 0.160
13.3449 3.634 0.160
13.3500 3.252 0.159
13.3551 3.511 0.160
13.3602 3.388 0.159
13.3653 3.510 0.160
13.3704 3.720 0.160
13.3755 3.252 0.159
13.3806 3.578 0.160
13.3857 3.347 0.159
13.3908 3.494 0.160
13.3959 3.395 0.159
13.4010 3.265 0.159
13.4061 3.442 0.159
13.4112 2.917 0.158
13.4163 3.318 0.159
13.4214 3.443 0.159
13.4265 3.108 0.159
13.4316 3.625 0.160
13.4368 3.519 0.159
13.4419 3.037 0.158
13.4470 3.502 0.159
13.4521 3.316 0.159
13.4572 2.766 0.158
13.4623 3.324 0.159
13.4674 3.249 0.159
13.4725 3.240 0.159
13.4776 3.245 0.159
13.4827 3.264 0.159
13.4878 2.839 0.158
13.4929 3.465 0.159
13.4980 3.378 0.159
13.5031 3.164 0.158
13.5082 3.354 0.159
13.5133 3.425 0.159
13.5184 2.946 0.158
13.5235 3.155 0.158
13.5286 3.124 0.158
13.5337 2.921 0.158
13.5388 3.332 0.159
13.5439 3.069 0.158
13.5490 2.801 0.157
13.5541 3.183 0.158
13.5592 3.406 0.159
13.5643 2.584 0.157
13.5694 3.311 0.158
13.5746 3.122 0.158
13.5797 3.035 0.158
13.5848 3.516 0.159
13.5899 3.163 0.158
13.5950 2.939 0.157
13.6001 3.176 0.158
13.6052 3.116 0.158
13.6103 2.816 0.157
13.6154 3.046 0.158
13.6205 3.077 0.158
13.6256 2.530 0.156
13.6307 3.190 0.158
13.6358 2.956 0.157
13.6409 2.819 0.157
13.6460 3.036 0.157
13.6511 3.091 0.157
13.6562 2.663 0.157
13.6613 2.997 0.157
13.6664 2.815 0.157
13.6715 2.558 0.156
13.6766 2.834 0.157
13.6817 3.057 0.157
13.6868 2.536 0.156
13.6919 3.035 0.157
13.6970 2.987 0.157
13.7021 2.443 0.156
13.7072 3.151 0.157
13.7124 2.913 0.157
13.7175 2.501 0.156
13.7226 3.237 0.157
13.7277 2.776 0.156
13.7328 2.588 0.156
13.7379 2.897 0.157
13.7430 3.003 0.157
13.7481 2.674 0.156
13.7532 2.598 0.156
13.7583 2.409 0.155
13.7634 2.527 0.156
13.7685 2.826 0.156
13.7736 2.617 0.156
13.7787 2.548 0.156
13.7838 2.686 0.156
13.7889 2.815 0.156
13.7940 2.608 0.156
13.7991 2.797 0.156
13.8042 2.896 0.156
13.8093 2.250 0.155
13.8144 2.586 0.155
13.8195 2.675 0.156
13.8246 2.341 0.155
13.8297 2.880 0.156
13.8348 2.333 0.155
13.8399 2.175 0.154
13.8450 2.596 0.155
13.8502 2.491 0.155
13.8553 2.306 0.155
13.8604 2.568 0.155
13.8655 2.605 0.155
13.8706 2.180 0.154
13.8757 2.683 0.155
13.8808 2.680 0.155
13.8859 2.102 0.154
13.8910 2.547 0.155
13.8961 2.586 0.155
13.9012 2.107 0.154
13.9063 2.552 0.155
13.9114 2.318 0.154
13.9165 2.135 0.154
13.9216 2.262 0.154
13.9267 2.613 0.155
13.9318 1.937 0.153
13.9369 2.469 0.154
13.9420 2.394 0.154
13.9471 2.049 0.153
13.9522 2.619 0.155
13.9573 2.082 0.153
13.9624 1.939 0.153
13.9675 2.255 0.154
13.9726 2.362 0.154
13.9777 1.846 0.153
13.9828 2.004 0.153
13.9880 2.044 0.153
13.9931 1.561 0.152
13.9982 2.150 0.153
14.0033 2.222 0.153
14.0084 1.966 0.153
14.0135 2.012 0.153
14.0186 2.080 0.153
14.0237 1.912 0.153
14.0288 2.080 0.153
14.0339 1.995 0.153
14.0390 1.908 0.153
14.0441 1.819 0.152
14.0492 2.181 0.153
14.0543 1.877 0.152
14.0594 2.149 0.153
14.0645 2.183 0.153
14.0696 1.922 0.152
14.0747 2.049 0.153
14.0798 1.921 0.152
14.0849 1.683 0.152
14.0900 1.872 0.152
14.0951 1.987 0.152
14.1002 1.672 0.152
14.1053 2.095 0.152
14.1104 1.883 0.152
14.1155 1.692 0.152
14.1206 2.208 0.153
14.1258 2.009 0.152
14.1309 1.631 0.151
14.1360 1.871 0.152
14.1411 1.943 0.152
14.1462 1.521 0.151
14.1513 1.607 0.151
14.1564 1.648 0.151
14.1615 1.394 0.151
14.1666 1.804 0.151
14.1717 1.578 0.151
14.1768 1.443 0.151
14.1819 1.889 0.152
14.1870 1.802 0.151
14.1921 1.170 0.150
14.1972 1.689 0.151
14.2023 1.502 0.151
14.2074 1.568 0.151
14.2125 1.704 0.151
14.2176 1.722 0.151
14.2227 1.430 0.150
14.2278 1.835 0.151
14.2329 1.986 0.151
14.2380 1.176 0.150
14.2431 1.869 0.151
14.2482 1.658 0.151
14.2533 1.127 0.149
14.2584 1.421 0.150
14.2636 1.570 0.150
14.2687 1.419 0.150
14.2738 1.500 0.150
14.2789 1.596 0.150
14.2840 1.199 0.149
14.2891 1.510 0.150
14.2942 1.352 0.149
14.2993 1.383 0.150
14.3044 1.552 0.150
14.3095 1.149 0.149
14.3146 0.963 0.148
14.3197 1.218 0.149
14.3248 1.411 0.149
14.3299 1.291 0.149
14.3350 1.404 0.149
14.3401 1.357 0.149
14.3452 1.354 0.149
14.3503 1.169 0.149
14.3554 1.336 0.149
14.3605 1.234 0.149
14.3656 1.298 0.149
14.3707 1.039 0.148
14.3758 1.145 0.148
14.3809 1.243 0.149
14.3860 1.114 0.148
14.3911 1.084 0.148
14.3962 1.173 0.148
14.4014 1.285 0.148
14.4065 0.822 0.147
14.4116 1.047 0.148
14.4167 1.321 0.148
14.4218 1.014 0.148
14.4269 0.835 0.147
14.4320 0.939 0.147
14.4371 1.016 0.148
14.4422 0.916 0.147
14.4473 0.963 0.147
14.4524 1.352 0.148
14.4575 0.979 0.147
14.4626 1.082 0.148
14.4677 0.579 0.146
14.4728 0.929 0.147
14.4779 1.093 0.147
14.4830 1.123 0.147
14.4881 0.875 0.147
14.4932 1.009 0.147
14.4983 0.799 0.147
14.5034 0.866 0.147
14.5085 1.257 0.148
14.5136 0.591 0.146
14.5187 0.766 0.146
14.5238 0.965 0.147
14.5289 1.143 0.147
14.5340 0.734 0.146
14.5392 1.058 0.147
14.5443 0.776 0.146
14.5494 0.533 0.146
14.5545 1.028 0.147
14.5596 0.673 0.146
14.5647 0.526 0.145
14.5698 0.765 0.146
14.5749 0.843 0.146
14.5800 0.604 0.145
14.5851 0.782 0.146
14.5902 0.696 0.146
14.5953 0.502 0.145
14.6004 1.069 0.146
14.6055 0.732 0.145
14.6106 0.565 0.145
14.6157 1.087 0.146
14.6208 0.793 0.145
14.6259 0.545 0.145
14.6310 0.668 0.145
14.6361 0.951 0.146
14.6412 0.552 0.145
14.6463 0.850 0.145
14.6514 0.954 0.146
14.6565 0.565 0.145
14.6616 0.951 0.145
14.6667 1.024 0.146
14.6718 0.347 0.144
14.6770 0.588 0.144
14.6821 0.466 0.144
14.6872 0.177 0.143
14.6923 0.891 0.145
14.6974 0.642 0.144
14.7025 0.403 0.144
14.7076 0.609 0.144
14.7127 0.587 0.144
14.7178 0.547 0.144
14.7229 0.484 0.144
14.7280 0.432 0.144
14.7331 0.228 0.143
14.7382 0.758 0.144
14.7433 0.649 0.144
14.7484 0.381 0.143
14.7535 0.555 0.144
14.7586 0.430 0.143
14.7637 0.319 0.143
14.7688 0.388 0.143
14.7739 0.629 0.144
14.7790 0.124 0.142
14.7841 0.521 0.143
14.7892 0.375 0.143
14.7943 0.262 0.143
14.7994 0.664 0.143
14.8045 0.557 0.143
14.8096 0.156 0.142
14.8148 0.343 0.143
14.8199 0.403 0.143
14.8250 0.006 0.142
14.8301 0.437 0.143
14.8352 0.601 0.143
14.8403 -0.039 0.141
14.8454 0.494 0.143
14.8505 0.314 0.142
14.8556 0.180 0.142
14.8607 0.309 0.142
14.8658 0.023 0.141
14.8709 0.190 0.142
14.8760 0.444 0.142
14.8811 0.187 0.142
14.8862 -0.171 0.141
14.8913 0.374 0.142
14.8964 0.328 0.142
14.9015 -0.175 0.141
14.9066 0.580 0.142
14.9117 0.293 0.141
14.9168 0.044 0.141
14.9219 0.261 0.141
14.9270 0.563 0.142
14.9321 -0.149 0.140
14.9372 0.432 0.142
14.9423 0.466 0.142
14.9474 0.111 0.141
14.9526 0.410 0.141
14.9577 0.406 0.141
14.9628 -0.046 0.140
14.9679 0.425 0.141
14.9730 -0.065 0.140
14.9781 -0.112 0.140
14.9832 0.209 0.141
14.9883 0.217 0.140
14.9934 -0.034 0.140
14.9985 0.231 0.140
15.0036 0.150 0.140
15.0087 0.120 0.140
15.0138 0.349 0.141
15.0189 -0.103 0.139
15.0240 -0.059 0.139
15.0291 0.265 0.140
15.0342 0.351 0.140
15.0393 0.091 0.140
15.0444 0.035 0.139
15.0495 0.385 0.140
15.0546 0.068 0.139
15.0597 0.083 0.139
15.0648 0.194 0.140
15.0699 0.092 0.139
15.0750 0.167 0.139
15.0801 0.174 0.139
15.0852 -0.126 0.139
15.0904 0.526 0.140
15.0955 0.367 0.140
15.1006 0.104 0.139
15.1057 0.011 0.139
15.1108 -0.068 0.138
15.1159 0.042 0.139
15.1210 0.062 0.139
15.1261 0.141 0.139
15.1312 -0.185 0.138
15.1363 0.428 0.139
15.1414 0.233 0.139
15.1465 0.027 0.138
15.1516 0.268 0.139
15.1567 -0.003 0.138
15.1618 -0.056 0.138
15.1669 0.121 0.138
15.1720 0.465 0.139
15.1771 -0.026 0.138
15.1822 0.198 0.138
15.1873 0.509 0.139
15.1924 -0.260 0.137
15.1975 0.032 0.138
15.2026 0.104 0.138
15.2077 0.105 0.138
15.2128 0.291 0.138
15.2179 0.110 0.138
15.2230 -0.074 0.137
15.2282 0.220 0.138
15.2333 0.133 0.138
15.2384 0.073 0.137
15.2435 0.062 0.137
15.2486 0.110 0.137
15.2537 -0.216 0.136
15.2588 -0.015 0.137
15.2639 -0.137 0.137
15.2690 -0.122 0.136
15.2741 0.110 0.137
15.2792 0.104 0.137
15.2843 -0.187 0.136
15.2894 0.257 0.137
15.2945 0.027 0.137
15.2996 -0.117 0.136
15.3047 0.325 0.137
15.3098 0.268 0.137
15.3149 -0.070 0.136
15.3200 -0.001 0.136
15.3251 0.180 0.137
15.3302 -0.265 0.136
15.3353 0.218 0.137
15.3404 0.066 0.136
15.3455 -0.051 0.136
15.3506 -0.013 0.136
15.3557 -0.001 0.136
15.3608 0.006 0.136
15.3660 -0.088 0.136
15.3711 0.131 0.136
15.3762 0.017 0.136
15.3813 0.079 0.136
15.3864 0.089 0.136
15.3915 -0.200 0.135
15.3966 0.077 0.136
15.4017 0.091 0.136
15.4068 0.053 0.136
15.4119 -0.191 0.135
15.4170 0.065 0.135
15.4221 -0.004 0.135
15.4272 0.158 0.136
15.4323 0.069 0.135
15.4374 0.056 0.135
15.4425 -0.164 0.135
15.4476 0.171 0.135
15.4527 0.003 0.135
15.4578 0.078 0.135
15.4629 0.031 0.135
15.4680 -0.127 0.134
15.4731 -0.162 0.134
15.4782 0.373 0.136
15.4833 -0.143 0.134
15.4884 -0.078 0.134
15.4935 -0.198 0.134
15.4986 0.073 0.135
15.5038 0.068 0.135
15.5089 -0.072 0.134
15.5140 0.034 0.134
15.5191 0.017 0.134
15.5242 0.073 0.134
15.5293 0.003 0.134
15.5344 0.106 0.134
15.5395 0.120 0.134
15.5446 -0.155 0.134
15.5497 0.199 0.134
15.5548 0.135 0.134
15.5599 -0.102 0.134
15.5650 -0.142 0.134
15.5701 0.098 0.134
15.5752 -0.178 0.133
15.5803 -0.015 0.134
15.5854 0.082 0.134
15.5905 -0.016 0.134
15.5956 -0.022 0.134
15.6007 0.181 0.134
15.6058 -0.030 0.134
15.6109 -0.099 0.133
15.6160 0.148 0.134
15.6211 0.059 0.134
15.6262 -0.096 0.133
15.6313 0.218 0.134
15.6364 0.028 0.133
15.6416 -0.028 0.133
15.6467 0.378 0.134
15.6518 0.012 0.133
15.6569 0.085 0.133
15.6620 0.101 0.133
15.6671 0.212 0.134
15.6722 -0.225 0.133
15.6773 -0.124 0.133
15.6824 -0.014 0.133
15.6875 -0.021 0.133
15.6926 -0.164 0.133
15.6977 0.014 0.133
15.7028 0.059 0.133
15.7079 0.152 0.133
15.7130 0.080 0.133
15.7181 -0.134 0.133
15.7232 0.166 0.133
15.7283 -0.002 0.133
15.7334 -0.133 0.133
15.7385 -0.035 0.133
15.7436 0.465 0.134
15.7487 -0.016 0.133
15.7538 0.133 0.133
15.7589 -0.041 0.133
15.7640 -0.035 0.133
15.7691 0.040 0.133
15.7742 0.318 0.134
15.7794 0.205 0.133
15.7845 0.406 0.134
15.7896 0.396 0.134
15.7947 -0.046 0.133
15.7998 0.523 0.134
15.8049 0.346 0.134
15.8100 0.292 0.134
15.8151 0.488 0.134
15.8202 0.447 0.134
15.8253 0.420 0.134
15.8304 0.650 0.135
15.8355 0.397 0.134
15.8406 0.182 0.133
15.8457 0.333 0.134
15.8508 0.391 0.134
15.8559 0.148 0.133
15.8610 0.722 0.135
15.8661 0.635 0.135
15.8712 0.461 0.134
15.8763 0.431 0.134
15.8814 0.389 0.134
15.8865 0.317 0.134
15.8916 0.538 0.134
15.8967 0.553 0.134
15.9018 0.277 0.134
15.9069 0.536 0.134
15.9120 0.182 0.134
15.9172 0.106 0.133
15.9223 0.739 0.135
15.9274 0.639 0.135
15.9325 0.392 0.134
15.9376 0.754 0.135
15.9427 0.666 0.135
15.9478 0.440 0.134
15.9529 0.529 0.134
15.9580 0.474 0.134
15.9631 0.460 0.134
15.9682 0.586 0.135
15.9733 0.729 0.135
15.9784 0.402 0.134
15.9835 0.638 0.135
15.9886 0.529 0.135
15.9937 0.501 0.134
15.9988 0.957 0.136
16.0039 0.822 0.135
16.0090 0.310 0.134
16.0141 0.609 0.135
16.0192 0.719 0.135
16.0243 0.827 0.135
16.0294 0.998 0.136
16.0345 1.202 0.136
16.0396 1.114 0.136
16.0447 1.402 0.137
16.0498 1.118 0.136
16.0550 1.055 0.136
16.0601 1.592 0.137
16.0652 1.578 0.137
16.0703 1.124 0.136
16.0754 1.796 0.138
16.0805 1.627 0.137
16.0856 1.390 0.137
16.0907 1.947 0.138
16.0958 1.633 0.137
16.1009 1.198 0.136
16.1060 1.715 0.137
16.1111 1.583 0.137
16.1162 1.417 0.137
16.1213 1.436 0.137
16.1264 1.323 0.137
16.1315 1.376 0.137
16.1366 1.465 0.137
16.1417 1.403 0.137
16.1468 0.981 0.136
16.1519 1.192 0.136
16.1570 1.091 0.136
16.1621 0.851 0.135
16.1672 1.266 0.136
16.1723 1.087 0.136
16.1774 0.701 0.135
16.1825 0.910 0.136
16.1876 1.014 0.136
16.1928 0.845 0.135
16.1979 1.005 0.136
16.2030 0.753 0.135
16.2081 0.702 0.135
16.2132 1.159 0.136
16.2183 0.963 0.136
16.2234 0.735 0.135
16.2285 0.976 0.136
16.2336 0.870 0.135
16.2387 0.485 0.135
16.2438 0.797 0.135
16.2489 0.684 0.135
16.2540 0.643 0.135
16.2591 0.732 0.135
16.2642 0.804 0.135
16.2693 0.682 0.135
16.2744 0.749 0.135
16.2795 0.626 0.135
16.2846 0.596 0.135
16.2897 1.061 0.136
16.2948 1.244 0.136
16.2999 0.774 0.135
16.3050 1.051 0.136
16.3101 1.239 0.136
16.3152 1.185 0.136
16.3203 1.488 0.137
16.3254 1.096 0.136
16.3306 1.337 0.137
16.3357 1.892 0.138
16.3408 1.550 0.137
16.3459 1.485 0.137
16.3510 1.855 0.138
16.3561 1.980 0.138
16.3612 2.181 0.139
16.3663 2.392 0.139
16.3714 2.517 0.139
16.3765 2.761 0.140
16.3816 3.237 0.141
16.3867 3.652 0.142
16.3918 3.501 0.142
16.3969 4.149 0.143
16.4020 4.577 0.144
16.4071 4.748 0.144
16.4122 5.651 0.146
16.4173 6.089 0.147
16.4224 6.697 0.149
16.4275 7.808 0.151
16.4326 8.177 0.152
16.4377 9.248 0.154
16.4428 10.445 0.157
16.4479 11.832 0.160
16.4530 12.589 0.161
16.4581 15.062 0.166
16.4632 16.245 0.168
16.4684 18.305 0.172
16.4735 20.897 0.177
16.4786 23.369 0.182
16.4837 25.640 0.186
16.4888 28.574 0.191
16.4939 32.121 0.197
16.4990 35.153 0.202
16.5041 38.411 0.207
16.5092 41.618 0.212
16.5143 44.052 0.215
16.5194 46.240 0.219
16.5245 47.901 0.221
16.5296 47.566 0.221
16.5347 47.617 0.221
16.5398 45.748 0.218
16.5449 42.087 0.212
16.5500 39.743 0.209
16.5551 35.849 0.203
16.5602 32.143 0.197
16.5653 29.254 0.192
16.5704 26.521 0.187
16.5755 24.358 0.183
16.5806 23.266 0.181
16.5857 22.340 0.180
16.5908 21.908 0.179
16.5959 22.317 0.180
16.6010 22.822 0.180
16.6062 23.339 0.181
16.6113 24.022 0.183
16.6164 24.975 0.184
16.6215 25.252 0.185
16.6266 25.249 0.185
16.6317 25.205 0.185
16.6368 23.974 0.183
16.6419 22.877 0.181
16.6470 21.190 0.177
16.6521 18.522 0.172
16.6572 16.115 0.168
16.6623 14.181 0.164
16.6674 11.511 0.159
16.6725 9.799 0.155
16.6776 8.271 0.152
16.6827 6.832 0.149
16.6878 5.813 0.147
16.6929 5.098 0.145
16.6980 4.051 0.143
16.7031 3.455 0.141
16.7082 3.080 0.140
16.7133 2.622 0.139
16.7184 2.261 0.138
16.7235 2.186 0.138
16.7286 2.022 0.138
16.7337 1.816 0.137
16.7388 1.566 0.137
16.7440 1.393 0.136
16.7491 1.334 0.136
16.7542 1.583 0.137
16.7593 1.311 0.136
16.7644 1.457 0.136
16.7695 1.311 0.136
16.7746 1.036 0.135
16.7797 1.089 0.135
16.7848 1.148 0.136
16.7899 1.370 0.136
16.7950 1.068 0.135
16.8001 1.133 0.135
16.8052 0.944 0.135
16.8103 0.800 0.135
16.8154 0.719 0.134
16.8205 1.146 0.135
16.8256 0.609 0.134
16.8307 1.143 0.135
16.8358 0.852 0.135
16.8409 0.520 0.134
16.8460 0.639 0.134
16.8511 0.785 0.135
16.8562 0.635 0.134
16.8613 1.028 0.135
16.8664 0.533 0.134
16.8715 0.269 0.133
16.8767 0.395 0.134
16.8818 0.395 0.134
16.8869 0.263 0.133
16.8920 0.636 0.134
16.8971 0.342 0.133
16.9022 0.414 0.134
16.9073 0.407 0.134
16.9124 0.519 0.134
16.9175 0.183 0.133
16.9226 0.407 0.133
16.9277 0.157 0.133
16.9328 0.333 0.133
16.9379 0.634 0.134
16.9430 0.373 0.133
16.9481 0.369 0.133
16.9532 0.666 0.134
16.9583 0.657 0.134
16.9634 0.062 0.133
16.9685 0.533 0.134
16.9736 0.662 0.134
16.9787 0.407 0.133
16.9838 0.629 0.134
16.9889 0.797 0.134
16.9940 0.699 0.134
16.9991 0.767 0.134
17.0042 0.978 0.135
17.0093 0.541 0.134
17.0145 1.255 0.135
17.0196 1.035 0.135
17.0247 1.234 0.135
17.0298 1.634 0.136
17.0349 1.861 0.137
17.0400 1.784 0.136
17.0451 2.303 0.138
17.0502 2.563 0.138
17.0553 2.760 0.139
17.0604 3.348 0.140
17.0655 3.651 0.141
17.0706 3.683 0.141
17.0757 4.796 0.143
17.0808 5.117 0.144
17.0859 5.510 0.145
17.0910 6.460 0.147
17.0961 6.858 0.148
17.1012 6.945 0.148
17.1063 7.861 0.150
17.1114 7.770 0.150
17.1165 7.463 0.149
17.1216 7.952 0.150
17.1267 7.735 0.150
17.1318 6.833 0.148
17.1369 6.600 0.147
17.1420 6.468 0.147
17.1471 5.832 0.145
17.1523 5.906 0.146
17.1574 6.038 0.146
17.1625 5.764 0.145
17.1676 5.882 0.146
17.1727 6.464 0.147
17.1778 6.804 0.148
17.1829 7.248 0.149
17.1880 8.196 0.151
17.1931 8.501 0.151
17.1982 9.809 0.154
17.2033 11.532 0.158
17.2084 12.155 0.159
17.2135 13.469 0.161
17.2186 14.601 0.164
17.2237 15.583 0.166
17.2288 17.163 0.169
17.2339 18.509 0.171
17.2390 19.118 0.172
17.2441 20.399 0.175
17.2492 21.448 0.177
17.2543 20.915 0.176
17.2594 21.980 0.178
17.2645 21.272 0.176
17.2696 20.153 0.174
17.2747 19.412 0.173
17.2798 17.420 0.169
17.2849 14.956 0.164
17.2901 13.784 0.162
17.2952 11.587 0.157
17.3003 9.814 0.154
17.3054 9.192 0.152
17.3105 8.590 0.151
17.3156 7.800 0.149
17.3207 7.795 0.149
17.3258 7.583 0.149
17.3309 7.672 0.149
17.3360 8.466 0.151
17.3411 9.165 0.152
17.3462 8.989 0.152
17.3513 10.076 0.154
17.3564 10.260 0.154
17.3615 9.874 0.154
17.3666 10.610 0.155
17.3717 9.922 0.154
17.3768 9.183 0.152
17.3819 8.442 0.150
17.3870 7.468 0.148
17.3921 6.294 0.146
17.3972 5.661 0.144
17.4023 4.483 0.142
17.4074 3.479 0.139
17.4125 2.828 0.138
17.4176 2.304 0.136
17.4227 1.585 0.135
17.4279 1.338 0.134
17.4330 1.208 0.134
17.4381 0.507 0.132
17.4432 0.632 0.132
17.4483 0.683 0.132
17.4534 0.232 0.131
17.4585 0.638 0.132
17.4636 0.450 0.132
17.4687 0.240 0.131
17.4738 0.364 0.131
17.4789 0.277 0.131
17.4840 0.111 0.131
17.4891 0.027 0.130
17.4942 -0.056 0.130
17.4993 -0.131 0.130
17.5044 0.229 0.131
17.5095 0.280 0.131
17.5146 -0.050 0.130
17.5197 0.427 0.131
17.5248 0.182 0.131
17.5299 -0.147 0.130
17.5350 -0.003 0.130
17.5401 0.031 0.130
17.5452 -0.245 0.130
17.5503 -0.031 0.130
17.5554 0.158 0.130
17.5605 -0.058 0.130
17.5657 0.232 0.131
17.5708 0.266 0.131
17.5759 -0.059 0.130
17.5810 0.254 0.131
17.5861 0.305 0.131
17.5912 -0.072 0.130
17.5963 0.267 0.131
17.6014 0.199 0.130
17.6065 -0.238 0.129
17.6116 -0.019 0.130
17.6167 0.182 0.130
17.6218 -0.265 0.129
17.6269 0.062 0.130
17.6320 0.299 0.130
17.6371 -0.031 0.130
17.6422 -0.035 0.130
17.6473 -0.024 0.130
17.6524 -0.129 0.129
17.6575 -0.041 0.129
17.6626 0.132 0.130
17.6677 -0.010 0.130
17.6728 0.157 0.130
17.6779 0.297 0.130
17.6830 -0.172 0.129
17.6881 0.097 0.130
17.6932 0.111 0.130
17.6983 0.150 0.130
17.7035 0.264 0.130
17.7086 0.078 0.130
17.7137 -0.035 0.129
17.7188 -0.037 0.129
17.7239 0.154 0.130
17.7290 0.117 0.130
17.7341 0.123 0.130
17.7392 0.298 0.130
17.7443 -0.171 0.129
17.7494 -0.025 0.129
17.7545 0.061 0.129
17.7596 -0.169 0.129
17.7647 -0.028 0.129
17.7698 0.327 0.130
17.7749 -0.034 0.129
17.7800 0.088 0.129
17.7851 0.026 0.129
17.7902 -0.097 0.129
17.7953 -0.016 0.129
17.8004 0.304 0.130
17.8055 0.164 0.129
17.8106 -0.181 0.129
17.8157 0.126 0.129
17.8208 -0.003 0.129
17.8259 -0.100 0.129
17.8310 0.108 0.129
17.8361 0.224 0.129
17.8413 -0.126 0.129
17.8464 0.321 0.130
17.8515 -0.084 0.129
17.8566 -0.125 0.129
17.8617 0.090 0.129
17.8668 0.032 0.129
17.8719 -0.017 0.129
17.8770 0.183 0.129
17.8821 0.157 0.129
17.8872 -0.143 0.128
17.8923 0.276 0.129
17.8974 -0.075 0.128
17.9025 -0.128 0.128
17.9076 0.027 0.129
17.9127 0.090 0.129
17.9178 -0.071 0.128
17.9229 -0.169 0.128
17.9280 0.071 0.129
17.9331 0.040 0.129
17.9382 0.445 0.130
17.9433 -0.079 0.128
17.9484 0.031 0.129
17.9535 0.114 0.129
17.9586 -0.004 0.128
17.9637 0.083 0.129
17.9688 0.108 0.129
17.9739 0.215 0.129
17.9791 -0.290 0.128
17.9842 0.179 0.129
17.9893 0.248 0.129
17.9944 -0.230 0.128
17.9995 0.409 0.129
18.0046 0.341 0.129
18.0097 -0.210 0.128
18.0148 0.027 0.128
18.0199 0.040 0.128
18.0250 0.128 0.128
18.0301 0.502 0.129
18.0352 0.141 0.128
18.0403 -0.211 0.127
18.0454 0.233 0.129
18.0505 0.272 0.129
18.0556 -0.096 0.128
18.0607 0.198 0.128
18.0658 0.322 0.129
18.0709 -0.174 0.127
18.0760 0.163 0.128
18.0811 0.181 0.128
18.0862 -0.159 0.127
18.0913 0.185 0.128
18.0964 0.311 0.129
18.1015 -0.038 0.128
18.1066 0.309 0.128
18.1117 0.105 0.128
18.1169 0.087 0.128
18.1220 0.078 0.128
18.1271 0.410 0.129
18.1322 -0.203 0.127
18.1373 0.341 0.128
18.1424 0.295 0.128
18.1475 0.160 0.128
18.1526 0.085 0.128
18.1577 -0.128 0.127
18.1628 -0.084 0.127
18.1679 0.073 0.128
18.1730 0.183 0.128
18.1781 -0.069 0.127
18.1832 0.310 0.128
18.1883 0.204 0.128
18.1934 -0.027 0.127
18.1985 0.226 0.128
18.2036 0.321 0.128
18.2087 -0.042 0.127
18.2138 0.111 0.127
18.2189 0.230 0.128
18.2240 -0.119 0.127
18.2291 0.210 0.128
18.2342 0.210 0.128
18.2393 0.057 0.127
18.2444 0.403 0.128
18.2495 -0.159 0.127
18.2547 0.199 0.127
18.2598 0.092 0.127
18.2649 0.232 0.127
18.2700 0.097 0.127
18.2751 0.062 0.127
18.2802 0.298 0.128
18.2853 -0.223 0.126
18.2904 0.102 0.127
18.2955 0.313 0.127
18.3006 -0.084 0.126
18.3057 0.200 0.127
18.3108 0.090 0.127
18.3159 -0.062 0.126
18.3210 0.244 0.127
18.3261 -0.026 0.126
18.3312 -0.251 0.126
18.3363 0.025 0.127
18.3414 0.074 0.127
18.3465 0.024 0.126
18.3516 0.098 0.127
18.3567 0.047 0.126
18.3618 -0.184 0.126
18.3669 0.336 0.127
18.3720 0.017 0.126
18.3771 0.072 0.126
18.3822 0.239 0.127
18.3873 0.297 0.127
18.3925 -0.172 0.126
18.3976 0.063 0.126
18.4027 0.214 0.127
18.4078 0.054 0.126
18.4129 0.037 0.126
18.4180 0.246 0.127
18.4231 -0.282 0.125
18.4282 0.439 0.127
18.4333 0.028 0.126
18.4384 -0.267 0.125
18.4435 0.070 0.126
18.4486 0.206 0.126
18.4537 0.012 0.126
18.4588 0.045 0.126
18.4639 0.229 0.126
18.4690 -0.116 0.125
18.4741 0.061 0.126
18.4792 0.222 0.126
18.4843 -0.256 0.125
18.4894 0.396 0.127
18.4945 0.161 0.126
18.4996 -0.102 0.125
18.5047 0.273 0.126
18.5098 0.317 0.126
18.5149 -0.057 0.125
18.5200 0.037 0.126
18.5251 0.164 0.126
18.5303 -0.182 0.125
18.5354 0.158 0.126
18.5405 0.131 0.126
18.5456 0.007 0.125
18.5507 0.156 0.126
18.5558 0.018 0.125
18.5609 0.149 0.126
18.5660 0.277 0.126
18.5711 0.152 0.126
18.5762 -0.188 0.125
18.5813 0.143 0.125
18.5864 0.516 0.126
18.5915 0.098 0.125
18.5966 0.227 0.126
18.6017 0.229 0.126
18.6068 0.102 0.125
18.6119 0.187 0.125
18.6170 0.124 0.125
18.6221 -0.150 0.124
18.6272 0.334 0.126
18.6323 0.270 0.125
18.6374 -0.094 0.124
18.6425 0.077 0.125
18.6476 0.147 0.125
18.6527 -0.270 0.124
18.6578 -0.049 0.124
18.6629 0.114 0.125
18.6681 -0.164 0.124
18.6732 -0.118 0.124
18.6783 0.230 0.125
18.6834 -0.094 0.124
18.6885 0.181 0.125
18.6936 0.120 0.125
18.6987 0.089 0.125
18.7038 0.054 0.124
18.7089 0.135 0.125
18.7140 -0.127 0.124
18.7191 0.185 0.125
18.7242 0.374 0.125
18.7293 -0.075 0.124
18.7344 0.068 0.124
18.7395 0.242 0.125
18.7446 -0.108 0.124
18.7497 0.101 0.124
18.7548 -0.060 0.124
18.7599 -0.029 0.124
18.7650 -0.015 0.124
18.7701 0.209 0.125
18.7752 0.059 0.124
18.7803 0.285 0.125
18.7854 0.228 0.125
18.7905 -0.117 0.124
18.7956 0.113 0.124
18.8007 -0.007 0.124
18.8059 -0.098 0.124
18.8110 -0.030 0.124
18.8161 0.099 0.124
18.8212 -0.186 0.123
18.8263 0.200 0.124
18.8314 0.115 0.124
18.8365 -0.123 0.123
18.8416 0.261 0.124
18.8467 0.073 0.124
18.8518 -0.008 0.124
18.8569 0.175 0.124
18.8620 0.077 0.124
18.8671 0.028 0.124
18.8722 0.092 0.124
18.8773 0.164 0.124
18.8824 0.020 0.123
18.8875 -0.144 0.123
18.8926 0.154 0.124
18.8977 -0.059 0.123
18.9028 -0.309 0.122
18.9079 0.196 0.124
18.9130 0.008 0.123
18.9181 -0.061 0.123
18.9232 -0.075 0.123
18.9283 -0.041 0.123
18.9334 0.224 0.124
18.9385 -0.059 0.123
18.9437 -0.123 0.123
18.9488 0.049 0.123
18.9539 0.129 0.123
18.9590 0.010 0.123
18.9641 -0.054 0.123
18.9692 0.219 0.124
18.9743 0.096 0.123
18.9794 -0.211 0.122
18.9845 0.056 0.123
18.9896 0.162 0.123
18.9947 -0.083 0.123
18.9998 0.094 0.123
19.0049 -0.145 0.122
19.0100 0.030 0.123
19.0151 0.248 0.123
19.0202 -0.121 0.122
19.0253 -0.122 0.122
19.0304 0.105 0.123
19.0355 -0.035 0.123
19.0406 -0.154 0.122
19.0457 0.202 0.123
19.0508 0.027 0.123
19.0559 0.126 0.123
19.0610 0.019 0.123
19.0661 0.078 0.123
19.0712 0.062 0.123
19.0763 0.041 0.123
19.0815 0.071 0.123
19.0866 -0.205 0.122
19.0917 0.290 0.123
19.0968 0.070 0.123
19.1019 -0.114 0.122
19.1070 0.166 0.123
19.1121 0.090 0.123
19.1172 0.029 0.122
19.1223 0.300 0.123
19.1274 0.249 0.123
19.1325 0.001 0.122
19.1376 0.397 0.123
19.1427 0.456 0.123
19.1478 0.479 0.124
19.1529 0.784 0.124
19.1580 0.493 0.124
19.1631 0.511 0.124
19.1682 0.896 0.125
19.1733 0.953 0.125
19.1784 0.794 0.124
19.1835 1.153 0.125
19.1886 1.268 0.125
19.1937 1.367 0.126
19.1988 1.634 0.126
19.2039 1.904 0.127
19.2090 1.592 0.126
19.2141 2.012 0.127
19.2193 1.827 0.127
19.2244 2.015 0.127
19.2295 2.489 0.128
19.2346 2.141 0.128
19.2397 2.101 0.127
19.2448 2.490 0.128
19.2499 2.551 0.128
19.2550 2.417 0.128
19.2601 2.611 0.129
19.2652 2.334 0.128
19.2703 2.605 0.129
19.2754 2.553 0.128
19.2805 2.940 0.129
19.2856 2.855 0.129
19.2907 2.972 0.129
19.2958 2.949 0.129
19.3009 3.027 0.129
19.3060 2.941 0.129
19.3111 2.871 0.129
19.3162 2.878 0.129
19.3213 3.096 0.130
19.3264 3.243 0.130
19.3315 3.577 0.131
19.3366 3.722 0.131
19.3417 3.909 0.132
19.3468 3.608 0.131
19.3519 4.317 0.132
19.3571 4.262 0.132
19.3622 4.272 0.132
19.3673 4.315 0.132
19.3724 4.607 0.133
19.3775 4.568 0.133
19.3826 4.945 0.134
19.3877 5.059 0.134
19.3928 4.714 0.133
19.3979 5.101 0.134
19.4030 5.184 0.134
19.4081 4.792 0.133
19.4132 5.208 0.134
19.4183 5.513 0.135
19.4234 4.929 0.134
19.4285 5.764 0.136
19.4336 5.702 0.136
19.4387 5.268 0.134
19.4438 5.525 0.135
19.4489 5.601 0.135
19.4540 5.347 0.135
19.4591 5.391 0.135
19.4642 5.388 0.135
19.4693 5.143 0.134
19.4744 5.761 0.135
19.4795 5.804 0.136
19.4846 5.487 0.135
19.4897 5.702 0.135
19.4949 5.593 0.135
19.5000 5.377 0.134
19.5051 5.714 0.135
19.5102 5.454 0.135
19.5153 5.096 0.134
19.5204 5.456 0.135
19.5255 5.144 0.134
19.5306 5.010 0.133
19.5357 4.972 0.133
19.5408 5.028 0.133
19.5459 4.775 0.133
19.5510 4.869 0.133
19.5561 4.548 0.132
19.5612 4.274 0.131
19.5663 4.526 0.132
19.5714 4.394 0.132
19.5765 3.986 0.131
19.5816 4.375 0.132
19.5867 4.330 0.131
19.5918 3.937 0.130
19.5969 4.132 0.131
19.6020 3.752 0.130
19.6071 3.829 0.130
19.6122 3.906 0.130
19.6173 4.070 0.131
19.6224 3.864 0.130
19.6275 3.686 0.130
19.6327 4.050 0.131
19.6378 3.553 0.129
19.6429 3.771 0.130
19.6480 3.879 0.130
19.6531 3.558 0.129
19.6582 3.952 0.130
19.6633 3.842 0.130
19.6684 3.397 0.129
19.6735 3.663 0.129
19.6786 3.754 0.130
19.6837 3.467 0.129
19.6888 3.800 0.130
19.6939 3.700 0.129
19.6990 3.688 0.129
19.7041 3.868 0.130
19.7092 4.001 0.130
19.7143 3.968 0.130
19.7194 4.350 0.131
19.7245 4.443 0.131
19.7296 4.063 0.130
19.7347 4.779 0.132
19.7398 5.019 0.132
19.7449 4.676 0.131
19.7500 5.220 0.133
19.7551 5.382 0.133
19.7602 5.828 0.134
19.7653 6.416 0.136
19.7705 6.886 0.137
19.7756 6.524 0.136
19.7807 7.505 0.138
19.7858 8.097 0.139
19.7909 8.446 0.140
19.7960 9.170 0.142
19.8011 9.994 0.144
19.8062 10.622 0.145
19.8113 12.096 0.148
19.8164 12.924 0.150
19.8215 14.063 0.153
19.8266 15.478 0.156
19.8317 17.594 0.160
19.8368 18.990 0.163
19.8419 21.248 0.167
19.8470 23.922 0.172
19.8521 26.049 0.176
19.8572 29.834 0.183
19.8623 32.970 0.188
19.8674 36.263 0.194
19.8725 40.504 0.201
19.8776 45.387 0.209
19.8827 49.775 0.215
19.8878 55.611 0.224
19.8929 60.623 0.231
19.8980 65.579 0.238
19.9031 72.233 0.247
19.9083 76.768 0.253
19.9134 80.370 0.257
19.9185 84.053 0.262
19.9236 86.802 0.265
19.9287 86.948 0.266
19.9338 86.583 0.265
19.9389 84.961 0.263
19.9440 80.423 0.257
19.9491 77.481 0.254
19.9542 71.577 0.246
19.9593 65.587 0.238
19.9644 60.799 0.231
19.9695 55.942 0.224
19.9746 50.624 0.216
19.9797 46.875 0.211
19.9848 44.595 0.207
19.9899 41.723 0.203
19.9950 40.200 0.200
20.0001 39.309 0.199
20.0052 38.855 0.198
20.0103 39.130 0.198
20.0154 40.263 0.200
20.0205 41.279 0.202
20.0256 43.005 0.204
20.0307 44.141 0.206
20.0358 45.167 0.208
20.0409 45.473 0.208
20.0461 46.608 0.210
20.0512 45.834 0.209
20.0563 44.826 0.207
20.0614 43.647 0.205
20.0665 40.754 0.201
20.0716 37.950 0.196
20.0767 34.932 0.191
20.0818 31.254 0.184
20.0869 27.856 0.178
20.0920 24.996 0.173
20.0971 21.204 0.166
20.1022 18.396 0.160
20.1073 16.035 0.155
20.1124 13.807 0.150
20.1175 11.439 0.145
20.1226 10.074 0.142
20.1277 8.837 0.139
20.1328 7.253 0.135
20.1379 6.587 0.134
20.1430 5.484 0.131
20.1481 4.758 0.129
20.1532 4.278 0.128
20.1583 3.711 0.126
20.1634 3.481 0.126
20.1685 2.920 0.124
20.1736 2.943 0.124
20.1787 2.301 0.122
20.1839 2.302 0.122
20.1890 2.235 0.122
20.1941 2.141 0.122
20.1992 1.954 0.121
20.2043 1.571 0.120
20.2094 1.562 0.120
20.2145 1.807 0.121
20.2196 1.283 0.119
20.2247 1.049 0.119
20.2298 1.275 0.119
20.2349 1.101 0.119
20.2400 0.673 0.118
20.2451 1.065 0.119
20.2502 0.896 0.118
20.2553 0.522 0.117
20.2604 0.674 0.117
20.2655 0.929 0.118
20.2706 0.465 0.117
20.2757 0.508 0.117
20.2808 0.225 0.116
20.2859 0.397 0.116
20.2910 0.584 0.117
20.2961 0.594 0.117
20.3012 0.349 0.116
20.3063 0.323 0.116
20.3114 0.471 0.116
20.3165 0.244 0.116
20.3217 0.066 0.115
20.3268 0.245 0.116
20.3319 0.028 0.115
20.3370 0.335 0.116
20.3421 0.332 0.116
20.3472 0.141 0.115
20.3523 0.184 0.115
20.3574 0.132 0.115
20.3625 0.178 0.115
20.3676 0.322 0.115
20.3727 0.235 0.115
20.3778 -0.001 0.114
20.3829 0.175 0.115
20.3880 0.127 0.115
20.3931 0.161 0.115
20.3982 0.157 0.115
20.4033 0.155 0.115
20.4084 0.146 0.115
20.4135 0.383 0.115
20.4186 0.255 0.115
20.4237 0.024 0.114
20.4288 0.047 0.114
20.4339 0.207 0.115
20.4390 -0.128 0.114
20.4441 0.001 0.114
20.4492 0.230 0.114
20.4543 -0.004 0.114
20.4595 0.123 0.114
20.4646 -0.046 0.114
20.4697 0.037 0.114
20.4748 0.280 0.114
20.4799 0.129 0.114
20.4850 -0.041 0.113
20.4901 0.003 0.113
20.4952 0.195 0.114
20.5003 0.001 0.113
20.5054 0.118 0.114
20.5105 0.148 0.114
20.5156 -0.019 0.113
20.5207 0.264 0.114
20.5258 0.189 0.114
20.5309 -0.060 0.113
20.5360 -0.031 0.113
20.5411 0.036 0.113
20.5462 -0.145 0.112
20.5513 -0.039 0.113
20.5564 0.271 0.114
20.5615 -0.087 0.112
20.5666 0.356 0.114
20.5717 0.013 0.113
20.5768 -0.117 0.112
20.5819 -0.004 0.113
20.5870 0.044 0.113
20.5921 -0.027 0.112
20.5973 0.022 0.113
20.6024 0.190 0.113
20.6075 -0.113 0.112
20.6126 0.143 0.113
20.6177 0.134 0.113
20.6228 0.071 0.112
20.6279 0.263 0.113
20.6330 0.103 0.112
20.6381 -0.114 0.112
20.6432 0.184 0.113
20.6483 0.174 0.113
20.6534 -0.283 0.111
20.6585 0.108 0.112
20.6636 0.125 0.112
20.6687 -0.052 0.112
20.6738 0.062 0.112
20.6789 0.026 0.112
20.6840 0.087 0.112
20.6891 0.000 0.112
20.6942 0.148 0.112
20.6993 0.118 0.112
20.7044 -0.014 0.112
20.7095 0.128 0.112
20.7146 -0.204 0.111
20.7197 0.121 0.112
20.7248 0.200 0.112
20.7299 -0.139 0.111
20.7351 0.009 0.111
20.7402 -0.111 0.111
20.7453 -0.193 0.111
20.7504 0.249 0.112
20.7555 0.148 0.112
20.7606 0.046 0.111
20.7657 0.054 0.111
20.7708 0.166 0.112
20.7759 -0.055 0.111
20.7810 0.068 0.111
20.7861 0.167 0.112
20.7912 0.058 0.111
20.7963 0.251 0.112
20.8014 -0.033 0.111
20.8065 -0.234 0.110
20.8116 0.191 0.112
20.8167 0.016 0.111
20.8218 -0.068 0.111
20.8269 0.032 0.111
20.8320 0.339 0.112
20.8371 -0.201 0.110
20.8422 0.031 0.111
20.8473 0.354 0.112
20.8524 -0.106 0.111
20.8575 -0.089 0.111
20.8626 0.163 0.111
20.8677 0.068 0.111
20.8729 -0.009 0.111
20.8780 0.078 0.111
20.8831 -0.102 0.110
20.8882 -0.013 0.111
20.8933 0.172 0.111
20.8984 -0.273 0.110
20.9035 0.040 0.111
20.9086 0.123 0.111
20.9137 0.076 0.111
20.9188 -0.014 0.111
20.9239 -0.070 0.110
20.9290 -0.180 0.110
20.9341 0.066 0.111
20.9392 0.000 0.111
20.9443 -0.147 0.110
20.9494 0.061 0.111
20.9545 0.056 0.111
20.9596 -0.133 0.110
20.9647 0.044 0.111
20.9698 0.250 0.111
20.9749 0.188 0.111
20.9800 0.397 0.112
20.9851 0.223 0.111
20.9902 0.114 0.111
20.9953 0.185 0.111
21.0004 0.215 0.111
21.0055 0.145 0.111
21.0107 0.093 0.111
21.0158 0.447 0.112
21.0209 0.375 0.112
21.0260 0.218 0.111
21.0311 0.356 0.111
21.0362 0.322 0.111
21.0413 0.274 0.111
21.0464 0.438 0.112
21.0515 0.470 0.112
21.0566 0.347 0.111
21.0617 0.592 0.112
21.0668 0.244 0.111
21.0719 0.350 0.111
21.0770 0.288 0.111
21.0821 0.220 0.111
21.0872 0.469 0.112
21.0923 0.436 0.112
21.0974 0.384 0.111
21.1025 0.407 0.111
21.1076 0.538 0.112
21.1127 0.229 0.111
21.1178 0.554 0.112
21.1229 0.529 0.112
21.1280 0.631 0.112
21.1331 0.600 0.112
21.1382 0.761 0.112
21.1433 0.577 0.112
21.1485 0.473 0.112
21.1536 0.679 0.112
21.1587 0.649 0.112
21.1638 0.699 0.112
21.1689 0.840 0.113
21.1740 0.591 0.112
21.1791 0.733 0.112
21.1842 0.685 0.112
21.1893 0.676 0.112
21.1944 0.614 0.112
21.1995 0.711 0.112
21.2046 0.685 0.112
21.2097 0.733 0.112
21.2148 0.817 0.112
21.2199 0.741 0.112
21.2250 0.663 0.112
21.2301 0.888 0.113
21.2352 0.701 0.112
21.2403 0.711 0.112
21.2454 0.727 0.112
21.2505 0.878 0.113
21.2556 0.815 0.112
21.2607 0.863 0.112
21.2658 0.515 0.111
21.2709 0.699 0.112
21.2760 0.726 0.112
21.2811 0.822 0.112
21.2863 0.519 0.111
21.2914 0.734 0.112
21.2965 0.808 0.112
21.3016 0.770 0.112
21.3067 0.825 0.112
21.3118 0.425 0.111
21.3169 0.604 0.112
21.3220 0.638 0.112
21.3271 0.411 0.111
21.3322 0.519 0.111
21.3373 0.585 0.111
21.3424 0.506 0.111
21.3475 0.258 0.110
21.3526 0.643 0.112
21.3577 0.485 0.111
21.3628 0.168 0.110
21.3679 0.428 0.111
21.3730 0.455 0.111
21.3781 0.236 0.110
21.3832 0.431 0.111
21.3883 0.427 0.111
21.3934 0.413 0.111
21.3985 0.535 0.111
21.4036 0.459 0.111
21.4087 0.304 0.110
21.4138 0.360 0.110
21.4189 0.451 0.111
21.4241 0.254 0.110
21.4292 0.472 0.111
21.4343 0.603 0.111
21.4394 0.213 0.110
21.4445 0.366 0.110
21.4496 0.383 0.110
21.4547 0.368 0.110
21.4598 0.434 0.111
21.4649 0.616 0.111
21.4700 0.043 0.109
21.4751 0.358 0.110
21.4802 0.662 0.111
21.4853 0.448 0.110
21.4904 0.354 0.110
21.4955 0.638 0.111
21.5006 0.001 0.109
21.5057 0.567 0.111
21.5108 0.516 0.111
21.5159 0.291 0.110
21.5210 0.652 0.111
21.5261 0.366 0.110
21.5312 0.370 0.110
21.5363 0.565 0.111
21.5414 0.636 0.111
21.5465 0.540 0.110
21.5516 0.690 0.111
21.5567 0.722 0.111
21.5619 0.681 0.111
21.5670 0.966 0.112
21.5721 0.813 0.111
21.5772 0.906 0.111
21.5823 1.336 0.113
21.5874 1.401 0.113
21.5925 1.309 0.113
21.5976 1.387 0.113
21.6027 1.695 0.114
21.6078 1.586 0.113
21.6129 2.056 0.115
21.6180 2.427 0.116
21.6231 2.594 0.116
21.6282 2.910 0.117
21.6333 2.964 0.117
21.6384 3.332 0.118
21.6435 3.752 0.119
21.6486 4.419 0.121
21.6537 4.512 0.121
21.6588 5.424 0.124
21.6639 6.189 0.126
21.6690 6.743 0.127
21.6741 7.799 0.130
21.6792 8.882 0.132
21.6843 9.644 0.134
21.6894 10.933 0.137
21.6945 12.019 0.140
21.6997 12.723 0.141
21.7048 13.876 0.144
21.7099 14.945 0.146
21.7150 15.552 0.148
21.7201 16.353 0.149
21.7252 16.473 0.150
21.7303 15.912 0.148
21.7354 16.154 0.149
21.7405 15.180 0.147
21.7456 13.915 0.144
21.7507 13.425 0.143
21.7558 11.806 0.139
21.7609 10.530 0.136
21.7660 9.706 0.134
21.7711 8.661 0.131
21.7762 7.677 0.129
21.7813 7.019 0.127
21.7864 6.414 0.126
21.7915 5.979 0.124
21.7966 5.838 0.124
21.8017 5.791 0.124
21.8068 5.724 0.124
21.8119 6.074 0.125
21.8170 6.646 0.126
21.8221 6.434 0.126
21.8272 6.964 0.127
21.8323 7.499 0.128
21.8375 7.492 0.128
21.8426 8.230 0.130
21.8477 8.446 0.131
21.8528 8.387 0.130
21.8579 8.662 0.131
21.8630 8.546 0.131
21.8681 8.087 0.130
21.8732 7.858 0.129
21.8783 6.902 0.126
21.8834 6.581 0.126
21.8885 6.045 0.124
21.8936 5.329 0.122
21.8987 4.191 0.119
21.9038 3.863 0.118
21.9089 3.252 0.117
21.9140 2.599 0.115
21.9191 2.419 0.114
21.9242 1.980 0.113
21.9293 1.593 0.112
21.9344 1.422 0.111
21.9395 1.365 0.111
21.9446 1.087 0.110
21.9497 0.937 0.110
21.9548 0.894 0.109
21.9599 0.442 0.108
21.9650 0.763 0.109
21.9701 0.551 0.108
21.9753 0.548 0.108
21.9804 0.436 0.108
21.9855 0.465 0.108
21.9906 0.139 0.107
21.9957 0.378 0.108
22.0008 0.303 0.107
22.0059 0.313 0.107
22.0110 0.351 0.107
22.0161 0.189 0.107
22.0212 0.096 0.107
22.0263 0.296 0.107
22.0314 0.009 0.106
22.0365 -0.243 0.106
22.0416 0.105 0.107
22.0467 0.137 0.107
22.0518 -0.212 0.106
22.0569 0.220 0.107
22.0620 -0.018 0.106
22.0671 0.052 0.106
22.0722 0.104 0.106
22.0773 0.019 0.106
22.0824 -0.214 0.105
22.0875 0.040 0.106
22.0926 0.118 0.106
22.0977 0.051 0.106
22.1028 0.247 0.107
22.1079 0.342 0.107
22.1131 -0.044 0.106
22.1182 -0.042 0.106
22.1233 0.061 0.106
22.1284 -0.211 0.105
22.1335 0.186 0.106
22.1386 -0.045 0.105
22.1437 -0.004 0.106
22.1488 -0.032 0.105
22.1539 0.025 0.106
22.1590 0.198 0.106
22.1641 0.128 0.106
22.1692 0.038 0.105
22.1743 -0.105 0.105
22.1794 -0.128 0.105
22.1845 0.099 0.106
22.1896 -0.043 0.105
22.1947 0.086 0.105
22.1998 0.150 0.106
22.2049 -0.022 0.105
22.2100 -0.056 0.105
22.2151 -0.039 0.105
22.2202 0.121 0.105
22.2253 0.035 0.105
22.2304 0.101 0.105
22.2355 0.222 0.106
22.2406 0.159 0.106
22.2457 0.034 0.105
22.2509 0.036 0.105
22.2560 -0.074 0.105
22.2611 -0.105 0.105
22.2662 0.065 0.105
22.2713 0.126 0.105
22.2764 0.228 0.106
22.2815 -0.053 0.105
22.2866 -0.135 0.104
22.2917 0.111 0.105
22.2968 -0.006 0.105
22.3019 0.118 0.105
22.3070 0.097 0.105
22.3121 0.030 0.105
22.3172 0.052 0.105
22.3223 0.265 0.106
22.3274 0.063 0.105
22.3325 0.197 0.105
22.3376 0.147 0.105
22.3427 0.081 0.105
22.3478 -0.075 0.104
22.3529 0.234 0.105
22.3580 -0.029 0.105
22.3631 0.000 0.105
22.3682 0.076 0.105
22.3733 0.006 0.105
22.3784 -0.047 0.104
22.3835 0.030 0.105
22.3887 0.095 0.105
22.3938 0.039 0.105
22.3989 0.076 0.105
22.4040 0.122 0.105
22.4091 -0.011 0.104
22.4142 0.092 0.105
22.4193 0.076 0.105
22.4244 -0.148 0.104
22.4295 0.077 0.105
22.4346 -0.055 0.104
22.4397 -0.065 0.104
22.4448 0.169 0.105
22.4499 0.004 0.104
22.4550 -0.103 0.104
22.4601 0.209 0.105
22.4652 -0.084 0.104
22.4703 -0.016 0.104
22.4754 0.196 0.105
22.4805 0.157 0.105
22.4856 -0.028 0.104
22.4907 0.194 0.105
22.4958 0.179 0.105
22.5009 0.126 0.104
22.5060 0.177 0.105
22.5111 0.242 0.105
22.5162 -0.130 0.104
22.5213 -0.056 0.104
22.5265 -0.104 0.104
22.5316 -0.048 0.104
22.5367 -0.016 0.104
22.5418 0.046 0.104
22.5469 -0.292 0.103
22.5520 -0.016 0.104
22.5571 0.002 0.104
22.5622 0.070 0.104
22.5673 0.088 0.104
22.5724 0.076 0.104
22.5775 0.135 0.104
22.5826 -0.024 0.104
22.5877 0.117 0.104
22.5928 -0.064 0.103
22.5979 0.225 0.104
22.6030 0.030 0.104
22.6081 -0.268 0.103
22.6132 0.063 0.104
22.6183 0.196 0.104
22.6234 0.004 0.104
22.6285 0.131 0.104
22.6336 0.175 0.104
22.6387 -0.127 0.103
22.6438 0.177 0.104
22.6489 -0.017 0.103
22.6540 -0.003 0.103
22.6591 -0.059 0.103
22.6643 0.140 0.104
22.6694 -0.009 0.103
22.6745 0.060 0.104
22.6796 0.044 0.103
22.6847 -0.085 0.103
22.6898 0.199 0.104
22.6949 0.157 0.104
22.7000 -0.187 0.103
22.7051 0.120 0.104
22.7102 -0.089 0.103
22.7153 -0.143 0.103
22.7204 0.194 0.104
22.7255 0.010 0.103
22.7306 -0.212 0.102
22.7357 0.021 0.103
22.7408 -0.085 0.103
22.7459 -0.023 0.103
22.7510 0.000 0.103
22.7561 -0.056 0.103
22.7612 -0.234 0.102
22.7663 0.057 0.103
22.7714 0.094 0.103
22.7765 -0.007 0.103
22.7816 0.038 0.103
22.7867 0.148 0.103
22.7918 -0.205 0.102
22.7969 -0.083 0.103
22.8021 0.048 0.103
22.8072 -0.136 0.102
22.8123 -0.047 0.103
22.8174 -0.003 0.103
22.8225 0.045 0.103
22.8276 0.045 0.103
22.8327 0.079 0.103
22.8378 -0.263 0.102
22.8429 0.106 0.103
22.8480 0.209 0.103
22.8531 -0.132 0.102
22.8582 0.092 0.103
22.8633 0.015 0.103
22.8684 0.054 0.103
22.8735 0.109 0.103
22.8786 0.019 0.103
22.8837 -0.121 0.102
22.8888 0.079 0.103
22.8939 0.141 0.103
22.8990 0.081 0.103
22.9041 0.050 0.102
22.9092 0.074 0.103
22.9143 -0.098 0.102
22.9194 0.006 0.102
22.9245 0.067 0.102
22.9296 -0.222 0.102
22.9347 0.062 0.102
22.9399 0.008 0.102
22.9450 0.032 0.102
22.9501 0.096 0.102
22.9552 0.139 0.103
22.9603 -0.049 0.102
22.9654 0.168 0.103
22.9705 -0.060 0.102
22.9756 0.001 0.102
22.9807 -0.054 0.102
22.9858 0.114 0.102
22.9909 -0.047 0.102
22.9960 -0.102 0.102
23.0011 0.019 0.102
23.0062 -0.068 0.102
23.0113 0.125 0.102
23.0164 0.106 0.102
23.0215 -0.131 0.101
23.0266 0.074 0.102
23.0317 0.018 0.102
23.0368 0.067 0.102
23.0419 -0.075 0.101
23.0470 0.115 0.102
23.0521 -0.277 0.101
23.0572 0.047 0.102
23.0623 0.278 0.102
23.0674 -0.152 0.101
23.0725 0.033 0.102
23.0777 0.117 0.102
23.0828 -0.159 0.101
23.0879 0.161 0.102
23.0930 0.159 0.102
23.0981 -0.128 0.101
23.1032 0.027 0.101
23.1083 0.187 0.102
23.1134 0.135 0.102
23.1185 0.177 0.102
23.1236 0.231 0.102
23.1287 0.040 0.101
23.1338 0.088 0.102
23.1389 -0.032 0.101
23.1440 -0.098 0.101
23.1491 -0.023 0.101
23.1542 0.015 0.101
23.1593 -0.180 0.101
23.1644 0.013 0.101
23.1695 0.165 0.102
23.1746 0.012 0.101
23.1797 -0.066 0.101
23.1848 0.046 0.101
23.1899 -0.042 0.101
23.1950 0.078 0.101
23.2001 0.079 0.101
23.2052 0.078 0.101
23.2103 0.296 0.102
23.2155 0.037 0.101
23.2206 -0.028 0.101
23.2257 -0.028 0.101
23.2308 -0.184 0.100
23.2359 0.028 0.101
23.2410 0.068 0.101
23.2461 -0.126 0.100
23.2512 0.035 0.101
23.2563 -0.051 0.100
23.2614 0.045 0.101
23.2665 -0.005 0.101
23.2716 0.175 0.101
23.2767 0.022 0.101
23.2818 -0.068 0.100
23.2869 0.023 0.101
23.2920 -0.036 0.100
23.2971 -0.127 0.100
23.3022 0.092 0.101
23.3073 -0.023 0.100
23.3124 0.077 0.101
23.3175 0.116 0.101
23.3226 0.181 0.101
23.3277 -0.121 0.100
23.3328 -0.001 0.100
23.3379 -0.078 0.100
23.3430 -0.004 0.100
23.3481 -0.053 0.100
23.3533 -0.100 0.100
23.3584 -0.080 0.100
23.3635 0.083 0.100
23.3686 0.106 0.100
23.3737 0.104 0.100
23.3788 0.256 0.101
23.3839 0.146 0.100
23.3890 0.078 0.100
23.3941 0.002 0.100
23.3992 0.155 0.100
23.4043 0.126 0.100
23.4094 -0.081 0.100
23.4145 0.092 0.100
23.4196 -0.039 0.100
23.4247 0.054 0.100
23.4298 0.233 0.100
23.4349 -0.111 0.099
23.4400 0.056 0.100
23.4451 -0.004 0.100
23.4502 -0.099 0.099
23.4553 -0.045 0.099
23.4604 -0.073 0.099
23.4655 -0.027 0.099
23.4706 -0.028 0.099
23.4757 0.101 0.100
23.4808 0.018 0.100
23.4859 -0.008 0.099
23.4911 0.112 0.100
23.4962 -0.079 0.099
23.5013 -0.117 0.099
23.5064 0.094 0.100
23.5115 -0.241 0.099
23.5166 -0.079 0.099
23.5217 0.049 0.100
23.5268 0.092 0.100
23.5319 0.013 0.099
23.5370 0.039 0.100
23.5421 -0.046 0.099
23.5472 0.122 0.100
23.5523 0.001 0.099
23.5574 0.081 0.100
23.5625 -0.027 0.099
23.5676 0.038 0.099
23.5727 0.151 0.100
23.5778 -0.204 0.099
23.5829 0.101 0.100
23.5880 -0.001 0.099
23.5931 -0.135 0.099
23.5982 0.189 0.100
23.6033 0.211 0.100
23.6084 -0.029 0.099
23.6135 0.016 0.099
23.6186 0.021 0.099
23.6237 -0.155 0.099
23.6289 0.130 0.100
23.6340 0.093 0.099
23.6391 -0.016 0.099
23.6442 0.089 0.099
23.6493 -0.065 0.099
23.6544 -0.093 0.099
23.6595 0.140 0.100
23.6646 0.039 0.099
23.6697 -0.091 0.099
23.6748 0.228 0.100
23.6799 0.236 0.100
23.6850 -0.094 0.099
23.6901 0.178 0.100
23.6952 -0.044 0.099
23.7003 -0.116 0.099
23.7054 0.280 0.100
23.7105 0.102 0.099
23.7156 0.061 0.099
23.7207 0.008 0.099
23.7258 0.029 0.099
23.7309 0.056 0.099
23.7360 0.046 0.099
23.7411 0.104 0.099
23.7462 -0.028 0.099
23.7513 0.278 0.100
23.7564 0.115 0.099
23.7615 0.066 0.099
23.7667 0.126 0.099
23.7718 0.151 0.099
23.7769 -0.060 0.098
23.7820 0.058 0.099
23.7871 0.196 0.099
23.7922 -0.020 0.099
23.7973 -0.029 0.099
23.8024 0.086 0.099
23.8075 0.015 0.099
23.8126 -0.105 0.098
23.8177 0.204 0.099
23.8228 0.012 0.099
23.8279 0.156 0.099
23.8330 0.039 0.099
23.8381 -0.110 0.098
23.8432 -0.042 0.098
23.8483 0.067 0.099
23.8534 -0.131 0.098
23.8585 0.027 0.099
23.8636 0.073 0.099
23.8687 -0.119 0.098
23.8738 0.124 0.099
23.8789 0.081 0.099
23.8840 -0.033 0.098
23.8891 0.128 0.099
23.8942 0.183 0.099
23.8993 0.063 0.099
23.9045 -0.087 0.098
23.9096 0.112 0.099
23.9147 -0.218 0.098
23.9198 0.088 0.099
23.9249 0.120 0.099
23.9300 0.037 0.098
23.9351 0.027 0.098
23.9402 0.177 0.099
23.9453 -0.172 0.098
23.9504 0.059 0.098
23.9555 -0.039 0.098
23.9606 -0.065 0.098
23.9657 0.079 0.098
23.9708 0.027 0.098
23.9759 -0.222 0.097
23.9810 0.078 0.098
23.9861 0.063 0.098
23.9912 0.015 0.098
23.9963 -0.008 0.098
24.0014 0.167 0.099
24.0065 -0.125 0.098
24.0116 0.152 0.099
24.0167 -0.031 0.098
24.0218 -0.184 0.098
24.0269 0.214 0.099
24.0320 0.061 0.098
24.0371 -0.126 0.098
24.0423 0.092 0.098
24.0474 0.035 0.098
24.0525 -0.115 0.098
24.0576 -0.036 0.098
24.0627 0.234 0.099
24.0678 0.011 0.098
24.0729 0.164 0.099
24.0780 -0.039 0.098
24.0831 0.070 0.098
24.0882 0.033 0.098
24.0933 0.071 0.098
24.0984 -0.062 0.098
24.1035 0.051 0.098
24.1086 0.154 0.098
24.1137 -0.203 0.097
24.1188 -0.074 0.098
24.1239 0.104 0.098
24.1290 0.141 0.098
24.1341 0.219 0.099
24.1392 0.217 0.099
24.1443 0.110 0.098
24.1494 0.213 0.099
24.1545 0.107 0.098
24.1596 -0.085 0.098
24.1647 0.162 0.098
24.1698 0.183 0.098
24.1749 -0.108 0.097
24.1801 0.109 0.098
24.1852 0.159 0.098
24.1903 -0.079 0.098
24.1954 -0.007 0.098
24.2005 0.204 0.098
24.2056 -0.001 0.098
24.2107 0.169 0.098
24.2158 -0.030 0.098
24.2209 0.009 0.098
24.2260 0.122 0.098
24.2311 0.134 0.098
24.2362 0.055 0.098
24.2413 0.108 0.098
24.2464 0.064 0.098
24.2515 -0.082 0.097
24.2566 0.068 0.098
24.2617 -0.072 0.097
24.2668 -0.097 0.097
24.2719 -0.014 0.098
24.2770 0.249 0.098
24.2821 -0.002 0.098
24.2872 0.153 0.098
24.2923 -0.093 0.097
24.2974 0.011 0.098
24.3025 0.197 0.098
24.3076 0.209 0.098
24.3127 -0.061 0.097
24.3179 0.104 0.098
24.3230 0.146 0.098
24.3281 -0.139 0.097
24.3332 -0.048 0.097
24.3383 0.072 0.098
24.3434 -0.030 0.097
24.3485 0.162 0.098
24.3536 0.097 0.098
24.3587 0.008 0.098
24.3638 0.300 0.098
24.3689 0.018 0.098
24.3740 -0.101 0.097
24.3791 -0.018 0.097
24.3842 0.194 0.098
24.3893 -0.016 0.097
24.3944 0.117 0.098
24.3995 -0.031 0.097
24.4046 0.025 0.098
24.4097 -0.040 0.097
24.4148 0.079 0.098
24.4199 0.068 0.098
24.4250 0.045 0.098
24.4301 0.182 0.098
24.4352 -0.137 0.097
24.4403 -0.063 0.097
24.4454 0.045 0.098
24.4505 0.028 0.097
24.4557 -0.058 0.097
24.4608 0.140 0.098
24.4659 0.016 0.097
24.4710 -0.124 0.097
24.4761 0.097 0.098
24.4812 -0.331 0.096
24.4863 0.032 0.097
24.4914 -0.041 0.097
24.4965 0.205 0.098
24.5016 0.062 0.097
24.5067 0.158 0.098
24.5118 0.023 0.097
24.5169 0.052 0.097
24.5220 0.010 0.097
24.5271 0.170 0.098
24.5322 -0.026 0.097
24.5373 0.018 0.097
24.5424 -0.108 0.097
24.5475 0.107 0.098
24.5526 0.019 0.097
24.5577 0.035 0.097
24.5628 -0.112 0.097
24.5679 0.101 0.097
24.5730 0.211 0.098
24.5781 -0.009 0.097
24.5832 0.248 0.098
24.5883 0.154 0.098
24.5935 0.195 0.098
24.5986 0.011 0.097
24.6037 0.183 0.098
24.6088 -0.056 0.097
24.6139 0.229 0.098
24.6190 -0.026 0.097
24.6241 -0.095 0.097
24.6292 0.058 0.097
24.6343 0.079 0.097
24.6394 -0.082 0.097
24.6445 0.189 0.098
24.6496 0.001 0.097
24.6547 -0.077 0.097
24.6598 0.064 0.097
24.6649 0.233 0.098
24.6700 0.141 0.097
24.6751 0.205 0.098
24.6802 0.014 0.097
24.6853 0.087 0.097
24.6904 0.132 0.097
24.6955 0.183 0.097
24.7006 0.080 0.097
24.7057 0.046 0.097
24.7108 0.194 0.097
24.7159 -0.025 0.097
24.7210 0.329 0.098
24.7261 0.166 0.097
24.7313 0.086 0.097
24.7364 0.121 0.097
24.7415 0.216 0.097
24.7466 -0.027 0.097
24.7517 0.057 0.097
24.7568 0.175 0.097
24.7619 -0.039 0.097
24.7670 -0.014 0.097
24.7721 -0.096 0.096
24.7772 -0.003 0.097
24.7823 0.196 0.097
24.7874 0.030 0.097
24.7925 0.047 0.097
24.7976 0.248 0.097
24.8027 0.014 0.097
24.8078 0.123 0.097
24.8129 0.169 0.097
24.8180 0.194 0.097
24.8231 0.050 0.097
24.8282 0.192 0.097
24.8333 0.003 0.097
24.8384 0.059 0.097
24.8435 0.271 0.097
24.8486 -0.014 0.096
24.8537 0.019 0.097
24.8588 0.156 0.097
24.8639 0.072 0.097
24.8691 -0.072 0.096
24.8742 0.037 0.097
24.8793 0.122 0.097
24.8844 -0.244 0.096
24.8895 0.011 0.096
24.8946 0.127 0.097
24.8997 -0.013 0.096
24.9048 0.123 0.097
24.9099 0.123 0.097
24.9150 -0.037 0.096
24.9201 0.076 0.097
24.9252 0.202 0.097
24.9303 -0.134 0.096
24.9354 0.014 0.096
24.9405 0.136 0.097
24.9456 0.043 0.097
24.9507 -0.078 0.096
24.9558 -0.096 0.096
24.9609 -0.024 0.096
24.9660 0.118 0.097
24.9711 0.236 0.097
24.9762 -0.175 0.096
24.9813 0.138 0.097
24.9864 -0.017 0.096
24.9915 -0.074 0.096
24.9966 0.034 0.097
25.0017 0.161 0.097
25.0069 0.000 0.096
25.0120 0.057 0.097
25.0171 0.119 0.097
25.0222 -0.251 0.096
25.0273 -0.033 0.096
25.0324 0.070 0.097
25.0375 -0.032 0.096
25.0426 -0.097 0.096
25.0477 0.030 0.097
25.0528 -0.122 0.096
25.0579 0.084 0.097
25.0630 -0.073 0.096
25.0681 -0.118 0.096
25.0732 0.117 0.097
25.0783 0.078 0.097
25.0834 -0.102 0.096
25.0885 0.024 0.097
25.0936 0.159 0.097
25.0987 -0.217 0.096
25.1038 0.019 0.097
25.1089 0.321 0.098
25.1140 -0.110 0.097
25.1191 -0.059 0.097
25.1242 0.076 0.097
25.1293 -0.198 0.096
25.1344 -0.061 0.097
25.1395 -0.025 0.097
25.1447 -0.117 0.097
25.1498 0.021 0.097
25.1549 0.327 0.098
25.1600 0.081 0.097
25.1651 0.187 0.098
25.1702 0.093 0.098
25.1753 -0.035 0.097
25.1804 0.037 0.097
25.1855 0.214 0.098
25.1906 0.002 0.097
25.1957 0.219 0.098
25.2008 0.353 0.099
25.2059 0.066 0.098
25.2110 0.349 0.099
25.2161 0.385 0.099
25.2212 0.128 0.098
25.2263 0.272 0.099
25.2314 0.485 0.099
25.2365 0.019 0.098
25.2416 0.315 0.099
25.2467 0.619 0.100
25.2518 0.481 0.099
25.2569 0.606 0.100
25.2620 0.515 0.100
25.2671 0.329 0.099
25.2722 0.558 0.100
25.2773 0.673 0.100
25.2825 0.359 0.099
25.2876 0.515 0.100
25.2927 0.532 0.100
25.2978 0.510 0.100
25.3029 0.408 0.099
25.3080 0.651 0.100
25.3131 0.445 0.100
25.3182 0.570 0.100
25.3233 0.607 0.100
25.3284 0.560 0.100
25.3335 0.624 0.100
25.3386 0.554 0.100
25.3437 0.324 0.099
25.3488 0.481 0.100
25.3539 0.718 0.101
25.3590 0.531 0.100
25.3641 0.710 0.101
25.3692 0.928 0.101
25.3743 0.539 0.100
25.3794 0.712 0.101
25.3845 0.651 0.101
25.3896 0.497 0.100
25.3947 0.735 0.101
25.3998 0.752 0.101
25.4049 0.718 0.101
25.4100 0.757 0.101
25.4152 0.697 0.101
25.4203 0.550 0.101
25.4254 0.769 0.101
25.4305 0.776 0.101
25.4356 0.404 0.100
25.4407 0.761 0.101
25.4458 0.758 0.101
25.4509 0.701 0.101
25.4560 0.494 0.101
25.4611 0.772 0.101
25.4662 0.639 0.101
25.4713 0.568 0.101
25.4764 0.586 0.101
25.4815 0.622 0.101
25.4866 0.755 0.102
25.4917 0.716 0.101
25.4968 0.371 0.100
25.5019 0.559 0.101
25.5070 0.690 0.101
25.5121 0.366 0.100
25.5172 0.605 0.101
25.5223 0.438 0.101
25.5274 0.480 0.101
25.5325 0.407 0.101
25.5376 0.651 0.101
25.5427 0.509 0.101
25.5478 0.465 0.101
25.5530 0.477 0.101
25.5581 0.328 0.101
25.5632 0.291 0.100
25.5683 0.368 0.101
25.5734 0.279 0.100
25.5785 0.208 0.100
25.5836 0.254 0.100
25.5887 0.057 0.100
25.5938 0.169 0.100
25.5989 0.218 0.100
25.6040 0.080 0.100
25.6091 -0.051 0.100
25.6142 0.207 0.100
25.6193 -0.074 0.099
25.6244 0.063 0.100
25.6295 0.200 0.100
25.6346 0.049 0.100
25.6397 0.011 0.100
25.6448 0.171 0.100
25.6499 0.256 0.101
25.6550 0.092 0.100
25.6601 0.144 0.100
25.6652 0.162 0.100
25.6703 0.232 0.101
25.6754 0.201 0.101
25.6805 0.337 0.101
25.6856 0.249 0.101
25.6908 0.275 0.101
25.6959 0.322 0.101
25.7010 0.274 0.101
25.7061 0.364 0.101
25.7112 0.169 0.101
25.7163 0.238 0.101
25.7214 0.415 0.101
25.7265 0.553 0.102
25.7316 0.315 0.101
25.7367 0.439 0.102
25.7418 0.687 0.102
25.7469 0.533 0.102
25.7520 0.848 0.103
25.7571 0.690 0.102
25.7622 0.646 0.102
25.7673 1.105 0.104
25.7724 1.198 0.104
25.7775 1.263 0.104
25.7826 1.584 0.105
25.7877 1.617 0.105
25.7928 1.915 0.106
25.7979 2.207 0.107
25.8030 2.447 0.108
25.8081 2.400 0.108
25.8132 3.108 0.110
25.8183 3.341 0.111
25.8234 3.815 0.112
25.8286 4.044 0.113
25.8337 4.458 0.114
25.8388 4.666 0.115
25.8439 5.037 0.116
25.8490 5.450 0.117
25.8541 5.902 0.118
25.8592 6.008 0.118
25.8643 6.339 0.119
25.8694 6.549 0.120
25.8745 7.177 0.122
25.8796 7.775 0.123
25.8847 7.946 0.124
25.8898 8.830 0.126
25.8949 9.253 0.127
25.9000 9.865 0.129
25.9051 10.989 0.132
25.9102 11.582 0.133
25.9153 12.178 0.134
25.9204 12.984 0.136
25.9255 13.823 0.138
25.9306 14.085 0.139
25.9357 14.781 0.141
25.9408 14.827 0.141
25.9459 14.479 0.140
25.9510 15.039 0.141
25.9561 14.625 0.140
25.9612 13.957 0.139
25.9664 13.742 0.138
25.9715 13.026 0.137
25.9766 12.150 0.135
25.9817 11.598 0.133
25.9868 10.695 0.131
25.9919 9.803 0.129
25.9970 9.257 0.127
26.0021 8.413 0.125
26.0072 7.547 0.123
26.0123 7.335 0.122
26.0174 6.986 0.121
26.0225 6.507 0.120
26.0276 6.191 0.119
26.0327 6.064 0.119
26.0378 5.745 0.118
26.0429 5.988 0.119
26.0480 5.815 0.118
26.0531 5.682 0.118
26.0582 6.171 0.119
26.0633 6.354 0.120
26.0684 6.167 0.119
26.0735 6.624 0.121
26.0786 6.880 0.121
26.0837 7.116 0.122
26.0888 7.320 0.123
26.0939 7.469 0.123
26.0990 7.505 0.123
26.1042 7.158 0.122
26.1093 7.216 0.122
26.1144 6.669 0.121
26.1195 6.844 0.121
26.1246 6.458 0.120
26.1297 5.842 0.119
26.1348 5.624 0.118
26.1399 5.107 0.117
26.1450 4.163 0.114
26.1501 3.944 0.113
26.1552 3.590 0.112
26.1603 2.964 0.110
26.1654 2.622 0.109
26.1705 2.330 0.109
26.1756 1.756 0.107
26.1807 1.733 0.107
26.1858 1.400 0.106
26.1909 1.227 0.105
26.1960 0.918 0.104
26.2011 0.923 0.104
26.2062 0.580 0.103
26.2113 0.508 0.103
26.2164 0.633 0.103
26.2215 0.368 0.103
26.2266 0.424 0.103
26.2317 0.214 0.102
26.2368 0.084 0.102
26.2420 0.261 0.102
26.2471 0.163 0.102
26.2522 -0.179 0.101
26.2573 -0.008 0.101
26.2624 0.061 0.102
26.2675 -0.088 0.101
26.2726 -0.101 0.101
26.2777 -0.069 0.101
26.2828 0.001 0.102
26.2879 0.053 0.102
26.2930 0.214 0.102
26.2981 -0.144 0.101
26.3032 0.151 0.102
26.3083 0.153 0.102
26.3134 -0.223 0.101
26.3185 0.034 0.102
26.3236 0.056 0.102
26.3287 -0.012 0.102
26.3338 0.217 0.102
26.3389 0.120 0.102
26.3440 0.056 0.102
26.3491 -0.002 0.102
26.3542 0.260 0.103
26.3593 0.127 0.102
26.3644 0.058 0.102
26.3695 0.205 0.103
26.3746 0.179 0.103
26.3798 0.334 0.103
26.3849 0.608 0.104
26.3900 0.266 0.103
26.3951 0.662 0.104
26.4002 0.742 0.104
26.4053 0.868 0.105
26.4104 0.800 0.105
26.4155 1.109 0.106
26.4206 1.006 0.105
26.4257 1.081 0.106
26.4308 1.254 0.106
26.4359 0.978 0.105
26.4410 1.313 0.106
26.4461 1.279 0.106
26.4512 1.250 0.106
26.4563 1.431 0.107
26.4614 1.565 0.107
26.4665 1.611 0.107
26.4716 1.556 0.107
26.4767 1.889 0.108
26.4818 1.997 0.109
26.4869 1.726 0.108
26.4920 2.337 0.110
26.4971 2.010 0.109
26.5022 2.166 0.109
26.5073 2.664 0.111
26.5124 2.473 0.110
26.5176 2.469 0.110
26.5227 2.781 0.111
26.5278 2.844 0.111
26.5329 2.828 0.111
26.5380 3.088 0.112
26.5431 3.080 0.112
26.5482 3.117 0.112
26.5533 3.399 0.113
26.5584 3.181 0.112
26.5635 3.615 0.114
26.5686 3.566 0.113
26.5737 3.624 0.114
26.5788 3.932 0.114
26.5839 4.064 0.115
26.5890 4.268 0.115
26.5941 4.096 0.115
26.5992 4.382 0.116
26.6043 4.503 0.116
26.6094 4.278 0.116
26.6145 4.707 0.117
26.6196 4.685 0.117
26.6247 4.888 0.117
26.6298 5.333 0.119
26.6349 5.058 0.118
26.6400 5.250 0.118
26.6451 5.662 0.119
26.6502 5.652 0.119
26.6554 5.582 0.119
26.6605 6.142 0.121
26.6656 6.082 0.121
26.6707 6.064 0.121
26.6758 6.620 0.122
26.6809 6.658 0.122
26.6860 6.392 0.122
26.6911 6.796 0.123
26.6962 7.054 0.123
26.7013 7.040 0.123
26.7064 7.316 0.124
26.7115 7.730 0.125
26.7166 7.274 0.124
26.7217 7.829 0.125
26.7268 7.868 0.125
26.7319 7.797 0.125
26.7370 8.037 0.126
26.7421 8.251 0.127
26.7472 8.018 0.126
26.7523 8.707 0.128
26.7574 8.852 0.128
26.7625 8.674 0.128
26.7676 9.262 0.129
26.7727 9.049 0.129
26.7778 8.999 0.128
26.7829 9.558 0.130
26.7880 9.828 0.131
26.7932 9.345 0.129
26.7983 9.505 0.130
26.8034 9.925 0.131
26.8085 9.683 0.130
26.8136 10.377 0.132
26.8187 10.767 0.133
26.8238 10.454 0.132
26.8289 10.885 0.133
26.8340 11.286 0.134
26.8391 11.019 0.134
26.8442 11.746 0.135
26.8493 11.889 0.136
26.8544 11.453 0.135
26.8595 11.524 0.135
26.8646 12.228 0.137
26.8697 11.655 0.135
26.8748 12.400 0.137
26.8799 12.372 0.137
26.8850 11.942 0.136
26.8901 12.397 0.137
26.8952 12.724 0.138
26.9003 12.173 0.136
26.9054 12.719 0.138
26.9105 13.116 0.139
26.9156 12.410 0.137
26.9207 13.154 0.139
26.9258 13.624 0.140
26.9310 13.041 0.139
26.9361 13.680 0.140
26.9412 13.850 0.140
26.9463 13.288 0.139
26.9514 13.720 0.140
26.9565 14.571 0.142
26.9616 13.510 0.140
26.9667 14.227 0.141
26.9718 14.423 0.142
26.9769 13.916 0.141
26.9820 14.210 0.141
26.9871 15.044 0.143
26.9922 14.246 0.141
26.9973 14.634 0.142
27.0024 15.155 0.143
27.0075 14.201 0.141
27.0126 14.883 0.143
27.0177 15.265 0.144
27.0228 14.348 0.142
27.0279 14.838 0.143
27.0330 15.310 0.144
27.0381 14.949 0.143
27.0432 15.217 0.144
27.0483 15.295 0.144
27.0534 14.548 0.142
27.0585 15.022 0.143
27.0636 15.692 0.145
27.0688 14.978 0.143
27.0739 15.201 0.144
27.0790 15.963 0.145
27.0841 15.021 0.143
27.0892 15.303 0.144
27.0943 15.984 0.145
27.0994 14.755 0.143
27.1045 15.102 0.143
27.1096 16.135 0.146
27.1147 14.806 0.143
27.1198 15.252 0.144
27.1249 15.912 0.145
27.1300 15.169 0.144
27.1351 15.073 0.143
27.1402 15.921 0.145
27.1453 15.198 0.144
27.1504 15.663 0.145
27.1555 16.140 0.146
27.1606 15.263 0.144
27.1657 15.289 0.144
27.1708 16.035 0.146
27.1759 15.065 0.143
27.1810 15.281 0.144
27.1861 15.889 0.145
27.1912 14.616 0.142
27.1963 15.107 0.143
27.2014 15.604 0.145
27.2066 14.598 0.142
27.2117 14.529 0.142
27.2168 15.382 0.144
27.2219 14.724 0.143
27.2270 14.753 0.143
27.2321 15.276 0.144
27.2372 14.319 0.142
27.2423 14.237 0.141
27.2474 14.915 0.143
27.2525 14.465 0.142
27.2576 13.941 0.141
27.2627 14.697 0.143
27.2678 13.794 0.140
27.2729 13.700 0.140
27.2780 14.177 0.141
27.2831 13.035 0.139
27.2882 13.301 0.139
27.2933 13.303 0.139
27.2984 13.169 0.139
27.3035 12.793 0.138
27.3086 13.274 0.139
27.3137 12.408 0.137
27.3188 12.762 0.138
27.3239 12.913 0.138
27.3290 12.290 0.137
27.3341 12.146 0.137
27.3392 12.624 0.138
27.3444 12.160 0.137
27.3495 11.878 0.136
27.3546 12.318 0.137
27.3597 11.627 0.135
27.3648 11.464 0.135
27.3699 11.884 0.136
27.3750 11.303 0.134
27.3801 11.083 0.134
27.3852 11.581 0.135
27.3903 11.109 0.134
27.3954 10.812 0.133
27.4005 11.075 0.134
27.4056 10.476 0.132
27.4107 10.254 0.132
27.4158 10.581 0.133
27.4209 9.919 0.131
27.4260 9.761 0.131
27.4311 9.967 0.131
27.4362 9.720 0.131
27.4413 9.518 0.130
27.4464 9.721 0.131
27.4515 9.107 0.129
27.4566 8.961 0.129
27.4617 9.533 0.130
27.4668 8.527 0.128
27.4719 8.408 0.127
27.4770 8.726 0.128
27.4822 8.112 0.126
27.4873 7.934 0.126
27.4924 8.508 0.127
27.4975 7.602 0.125
27.5026 7.461 0.125
27.5077 7.841 0.126
27.5128 7.421 0.125
27.5179 7.079 0.124
27.5230 7.563 0.125
27.5281 7.214 0.124
27.5332 6.650 0.123
27.5383 7.159 0.124
27.5434 6.673 0.123
27.5485 6.667 0.123
27.5536 6.764 0.123
27.5587 6.278 0.122
27.5638 6.240 0.121
27.5689 6.514 0.122
27.5740 5.902 0.121
27.5791 5.824 0.120
27.5842 5.812 0.120
27.5893 5.521 0.119
27.5944 5.454 0.119
27.5995 5.886 0.120
27.6046 5.301 0.119
27.6097 5.111 0.118
27.6148 5.231 0.119
27.6200 5.115 0.118
27.6251 4.812 0.117
27.6302 4.981 0.118
27.6353 4.860 0.118
27.6404 4.411 0.116
27.6455 4.803 0.117
27.6506 4.365 0.116
27.6557 4.350 0.116
27.6608 4.676 0.117
27.6659 4.289 0.116
27.6710 4.058 0.115
27.6761 4.148 0.116
27.6812 4.128 0.115
27.6863 3.995 0.115
27.6914 3.851 0.115
27.6965 3.696 0.114
27.7016 3.738 0.114
27.7067 3.909 0.115
27.7118 3.588 0.114
27.7169 3.748 0.114
27.7220 3.636 0.114
27.7271 3.580 0.114
27.7322 3.425 0.113
27.7373 3.698 0.114
27.7424 3.268 0.113
27.7475 3.545 0.114
27.7526 3.445 0.113
27.7578 3.148 0.112
27.7629 3.148 0.112
27.7680 3.420 0.113
27.7731 3.323 0.113
27.7782 3.159 0.112
27.7833 3.400 0.113
27.7884 3.170 0.112
27.7935 3.296 0.113
27.7986 3.527 0.113
27.8037 3.400 0.113
27.8088 3.309 0.113
27.8139 3.355 0.113
27.8190 3.391 0.113
27.8241 3.182 0.112
27.8292 3.326 0.113
27.8343 2.984 0.112
27.8394 3.176 0.112
27.8445 3.127 0.112
27.8496 2.936 0.112
27.8547 2.817 0.111
27.8598 3.005 0.112
27.8649 2.883 0.111
27.8700 2.716 0.111
27.8751 2.701 0.111
27.8802 2.500 0.110
27.8853 2.635 0.111
27.8904 2.877 0.111
27.8956 2.707 0.111
27.9007 2.669 0.111
27.9058 2.711 0.111
27.9109 2.706 0.111
27.9160 2.580 0.110
27.9211 2.713 0.111
27.9262 2.565 0.110
27.9313 2.401 0.110
27.9364 2.615 0.110
27.9415 2.522 0.110
27.9466 2.530 0.110
27.9517 2.736 0.111
27.9568 2.884 0.111
27.9619 2.598 0.110
27.9670 2.867 0.111
27.9721 2.527 0.110
27.9772 2.450 0.110
27.9823 2.781 0.111
27.9874 2.733 0.111
27.9925 2.379 0.110
27.9976 2.717 0.111
28.0027 2.663 0.110
28.0078 2.528 0.110
28.0129 2.925 0.111
28.0180 2.703 0.110
28.0231 2.489 0.110
28.0282 2.762 0.111
28.0334 2.569 0.110
28.0385 2.606 0.110
28.0436 2.502 0.110
28.0487 2.811 0.111
28.0538 2.444 0.110
28.0589 2.659 0.110
28.0640 2.720 0.110
28.0691 2.530 0.110
28.0742 2.613 0.110
28.0793 2.802 0.110
28.0844 2.565 0.110
28.0895 2.513 0.110
28.0946 2.597 0.110
28.0997 2.385 0.109
28.1048 2.759 0.110
28.1099 2.881 0.111
28.1150 2.615 0.110
28.1201 2.899 0.111
28.1252 2.794 0.110
28.1303 2.702 0.110
28.1354 3.272 0.112
28.1405 3.501 0.112
28.1456 3.266 0.112
28.1507 3.520 0.112
28.1558 3.852 0.113
28.1609 3.815 0.113
28.1660 4.441 0.115
28.1712 4.702 0.116
28.1763 4.694 0.116
28.1814 5.287 0.117
28.1865 6.054 0.119
28.1916 6.074 0.119
28.1967 6.981 0.122
28.2018 7.688 0.124
28.2069 7.867 0.124
28.2120 9.096 0.127
28.2171 10.055 0.130
28.2222 10.863 0.132
28.2273 12.264 0.135
28.2324 13.225 0.137
28.2375 14.180 0.140
28.2426 15.987 0.144
28.2477 17.336 0.147
28.2528 18.300 0.149
28.2579 19.915 0.152
28.2630 20.981 0.154
28.2681 21.812 0.156
28.2732 22.993 0.159
28.2783 23.492 0.160
28.2834 23.173 0.159
28.2885 23.732 0.160
28.2936 23.396 0.159
28.2987 22.152 0.157
28.3038 21.703 0.156
28.3090 20.552 0.153
28.3141 19.178 0.150
28.3192 18.324 0.149
28.3243 17.231 0.146
28.3294 15.617 0.142
28.3345 14.898 0.141
28.3396 14.117 0.139
28.3447 12.890 0.136
28.3498 12.661 0.135
28.3549 12.151 0.134
28.3600 11.804 0.133
28.3651 11.895 0.134
28.3702 12.379 0.135
28.3753 12.097 0.134
28.3804 12.964 0.136
28.3855 13.811 0.138
28.3906 14.018 0.139
28.3957 15.422 0.142
28.4008 17.172 0.146
28.4059 17.985 0.148
28.4110 19.793 0.151
28.4161 21.677 0.155
28.4212 23.124 0.158
28.4263 25.474 0.163
28.4314 27.217 0.167
28.4365 28.555 0.169
28.4416 30.926 0.174
28.4468 32.745 0.177
28.4519 33.401 0.178
28.4570 34.508 0.180
28.4621 35.215 0.181
28.4672 34.700 0.180
28.4723 34.417 0.180
28.4774 33.430 0.178
28.4825 31.466 0.174
28.4876 30.164 0.172
28.4927 28.249 0.168
28.4978 25.591 0.163
28.5029 23.330 0.158
28.5080 21.023 0.154
28.5131 18.457 0.148
28.5182 16.849 0.144
28.5233 15.045 0.140
28.5284 12.780 0.135
28.5335 11.969 0.133
28.5386 10.864 0.130
28.5437 9.330 0.126
28.5488 9.098 0.126
28.5539 8.301 0.124
28.5590 7.862 0.122
28.5641 7.726 0.122
28.5692 7.357 0.121
28.5743 7.486 0.121
28.5794 7.632 0.122
28.5846 7.759 0.122
28.5897 7.985 0.123
28.5948 8.408 0.124
28.5999 9.311 0.126
28.6050 9.474 0.126
28.6101 10.110 0.128
28.6152 11.037 0.130
28.6203 11.329 0.131
28.6254 11.898 0.132
28.6305 12.054 0.133
28.6356 12.207 0.133
28.6407 12.772 0.134
28.6458 12.373 0.133
28.6509 11.600 0.131
28.6560 11.724 0.132
28.6611 11.113 0.130
28.6662 10.246 0.128
28.6713 9.410 0.126
28.6764 9.067 0.125
28.6815 7.633 0.121
28.6866 6.741 0.119
28.6917 6.105 0.117
28.6968 4.876 0.113
28.7019 4.721 0.113
28.7070 3.813 0.110
28.7121 3.085 0.108
28.7172 2.900 0.107
28.7224 2.120 0.105
28.7275 1.717 0.104
28.7326 1.812 0.104
28.7377 1.396 0.103
28.7428 1.024 0.101
28.7479 1.122 0.102
28.7530 0.947 0.101
28.7581 0.662 0.100
28.7632 0.462 0.099
28.7683 0.552 0.100
28.7734 0.487 0.099
28.7785 0.536 0.099
28.7836 0.364 0.099
28.7887 -0.125 0.097
28.7938 0.356 0.099
28.7989 0.352 0.099
28.8040 0.139 0.098
28.8091 0.305 0.098
28.8142 0.164 0.098
28.8193 0.043 0.098
28.8244 -0.103 0.097
28.8295 0.166 0.098
28.8346 -0.074 0.097
28.8397 0.056 0.097
28.8448 0.016 0.097
28.8499 0.048 0.097
28.8550 -0.130 0.097
28.8602 0.069 0.097
28.8653 -0.022 0.097
28.8704 -0.098 0.097
28.8755 0.021 0.097
28.8806 -0.031 0.097
28.8857 0.000 0.097
28.8908 0.018 0.097
28.8959 -0.259 0.096
28.9010 -0.029 0.097
28.9061 0.006 0.097
28.9112 0.125 0.097
28.9163 0.013 0.097
28.9214 0.083 0.097
28.9265 -0.104 0.096
28.9316 -0.005 0.097
28.9367 0.065 0.097
28.9418 -0.024 0.097
28.9469 -0.166 0.096
28.9520 0.158 0.097
28.9571 0.093 0.097
28.9622 0.030 0.097
28.9673 0.022 0.097
28.9724 0.058 0.097
28.9775 -0.033 0.097
28.9826 0.013 0.097
28.9877 0.018 0.097
28.9928 -0.096 0.096
28.9980 -0.022 0.097
29.0031 0.031 0.097
29.0082 0.063 0.097
29.0133 0.164 0.097
29.0184 -0.126 0.096
29.0235 0.197 0.097
29.0286 0.226 0.097
29.0337 0.021 0.097
29.0388 0.203 0.097
29.0439 0.213 0.097
29.0490 0.405 0.098
29.0541 0.221 0.097
29.0592 0.315 0.098
29.0643 0.493 0.098
29.0694 0.144 0.097
29.0745 0.449 0.098
29.0796 0.351 0.098
29.0847 0.555 0.099
29.0898 0.416 0.098
29.0949 0.446 0.098
29.1000 0.397 0.098
29.1051 0.688 0.099
29.1102 0.715 0.099
29.1153 0.582 0.099
29.1204 0.694 0.099
29.1255 0.553 0.099
29.1306 0.615 0.099
29.1358 0.572 0.099
29.1409 0.762 0.099
29.1460 0.723 0.099
29.1511 0.700 0.099
29.1562 0.541 0.099
29.1613 0.652 0.099
29.1664 1.006 0.100
29.1715 0.620 0.099
29.1766 0.652 0.099
29.1817 0.871 0.100
29.1868 0.689 0.099
29.1919 0.640 0.099
29.1970 0.827 0.100
29.2021 0.798 0.099
29.2072 0.604 0.099
29.2123 0.765 0.099
29.2174 0.819 0.100
29.2225 0.990 0.100
29.2276 0.861 0.100
29.2327 0.871 0.100
29.2378 0.919 0.100
29.2429 0.873 0.100
29.2480 1.135 0.101
29.2531 1.011 0.100
29.2582 0.941 0.100
29.2633 1.044 0.100
29.2684 0.934 0.100
29.2736 1.186 0.101
29.2787 0.871 0.100
29.2838 1.089 0.100
29.2889 0.988 0.100
29.2940 1.246 0.101
29.2991 1.058 0.100
29.3042 1.026 0.100
29.3093 1.078 0.100
29.3144 1.047 0.100
29.3195 0.909 0.100
29.3246 1.201 0.101
29.3297 1.030 0.100
29.3348 1.067 0.100
29.3399 1.062 0.100
29.3450 1.010 0.100
29.3501 1.125 0.100
29.3552 1.150 0.101
29.3603 0.901 0.100
29.3654 0.968 0.100
29.3705 1.011 0.100
29.3756 0.943 0.100
29.3807 1.140 0.100
29.3858 1.021 0.100
29.3909 0.682 0.099
29.3960 0.942 0.100
29.4011 0.912 0.100
29.4062 0.771 0.099
29.4114 0.897 0.100
29.4165 0.836 0.099
29.4216 0.605 0.099
29.4267 0.872 0.100
29.4318 0.902 0.100
29.4369 0.639 0.099
29.4420 0.924 0.100
29.4471 0.841 0.099
29.4522 0.560 0.099
29.4573 0.768 0.099
29.4624 0.953 0.100
29.4675 0.660 0.099
29.4726 0.838 0.099
29.4777 0.730 0.099
29.4828 0.697 0.099
29.4879 0.936 0.100
29.4930 0.953 0.100
29.4981 0.729 0.099
29.5032 0.819 0.099
29.5083 0.945 0.100
29.5134 0.683 0.099
29.5185 0.954 0.100
29.5236 0.892 0.100
29.5287 0.826 0.099
29.5338 0.952 0.100
29.5389 1.165 0.100
29.5440 0.799 0.099
29.5492 0.927 0.100
29.5543 1.161 0.100
29.5594 1.079 0.100
29.5645 0.786 0.099
29.5696 1.089 0.100
29.5747 0.968 0.100
29.5798 1.027 0.100
29.5849 1.361 0.101
29.5900 0.952 0.100
29.5951 1.208 0.100
29.6002 1.219 0.100
29.6053 1.017 0.100
29.6104 1.308 0.101
29.6155 1.429 0.101
29.6206 1.401 0.101
29.6257 1.658 0.102
29.6308 1.743 0.102
29.6359 1.539 0.101
29.6410 2.047 0.103
29.6461 1.924 0.103
29.6512 2.027 0.103
29.6563 2.282 0.104
29.6614 2.639 0.105
29.6665 2.570 0.105
29.6716 2.776 0.105
29.6767 3.268 0.107
29.6818 3.503 0.107
29.6870 3.901 0.109
29.6921 4.492 0.110
29.6972 4.620 0.111
29.7023 5.205 0.112
29.7074 5.855 0.114
29.7125 6.225 0.115
29.7176 7.012 0.118
29.7227 7.839 0.120
29.7278 8.324 0.121
29.7329 9.533 0.124
29.7380 10.297 0.126
29.7431 11.239 0.129
29.7482 12.346 0.131
29.7533 13.116 0.133
29.7584 13.603 0.134
29.7635 14.810 0.137
29.7686 15.438 0.139
29.7737 15.216 0.138
29.7788 16.135 0.140
29.7839 16.013 0.140
29.7890 15.349 0.139
29.7941 15.291 0.138
29.7992 14.723 0.137
29.8043 13.676 0.135
29.8094 13.103 0.133
29.8145 12.310 0.131
29.8196 11.190 0.128
29.8248 10.500 0.127
29.8299 9.584 0.124
29.8350 8.479 0.121
29.8401 8.050 0.120
29.8452 7.093 0.117
29.8503 6.418 0.116
29.8554 5.725 0.114
29.8605 5.542 0.113
29.8656 5.083 0.112
29.8707 4.859 0.111
29.8758 4.680 0.110
29.8809 4.517 0.110
29.8860 4.588 0.110
29.8911 4.692 0.110
29.8962 4.232 0.109
29.9013 4.933 0.111
29.9064 5.164 0.112
29.9115 5.150 0.112
29.9166 5.445 0.113
29.9217 5.752 0.113
29.9268 5.885 0.114
29.9319 6.592 0.116
29.9370 7.057 0.117
29.9421 7.227 0.118
29.9472 7.712 0.119
29.9523 7.976 0.120
29.9574 7.933 0.119
29.9626 8.145 0.120
29.9677 8.202 0.120
29.9728 7.747 0.119
29.9779 8.043 0.120
29.9830 7.444 0.118
29.9881 6.848 0.116
29.9932 6.856 0.116
29.9983 6.244 0.115
30.0034 5.423 0.112
30.0085 5.000 0.111
30.0136 4.705 0.110
30.0187 4.113 0.108
30.0238 3.808 0.107
30.0289 3.231 0.106
30.0340 2.602 0.104
30.0391 2.321 0.103
30.0442 2.215 0.102
30.0493 1.659 0.101
30.0544 1.505 0.100
30.0595 1.529 0.100
30.0646 1.234 0.099
30.0697 0.918 0.098
30.0748 0.997 0.098
30.0799 0.867 0.098
30.0850 0.673 0.097
30.0901 0.748 0.097
30.0952 0.530 0.097
30.1004 0.581 0.097
30.1055 0.553 0.097
30.1106 0.482 0.096
30.1157 0.165 0.095
30.1208 0.342 0.096
30.1259 0.384 0.096
30.1310 0.313 0.096
30.1361 0.240 0.095
30.1412 0.302 0.096
30.1463 0.104 0.095
30.1514 0.345 0.096
30.1565 0.234 0.095
30.1616 -0.089 0.094
30.1667 0.149 0.095
30.1718 -0.070 0.094
30.1769 0.059 0.095
30.1820 0.224 0.095
30.1871 0.118 0.095
30.1922 0.075 0.095
30.1973 0.247 0.095
30.2024 -0.001 0.094
30.2075 0.192 0.095
30.2126 0.086 0.094
30.2177 -0.074 0.094
30.2228 -0.086 0.094
30.2279 0.196 0.095
30.2330 0.104 0.094
30.2382 -0.113 0.094
30.2433 -0.006 0.094
30.2484 -0.112 0.094
30.2535 0.003 0.094
30.2586 0.042 0.094
30.2637 0.110 0.094
30.2688 0.143 0.094
30.2739 0.065 0.094
30.2790 0.062 0.094
30.2841 -0.247 0.093
30.2892 0.029 0.094
30.2943 0.178 0.094
30.2994 0.001 0.094
30.3045 0.084 0.094
30.3096 0.153 0.094
30.3147 -0.088 0.094
30.3198 -0.002 0.094
30.3249 0.032 0.094
30.3300 -0.016 0.094
30.3351 0.020 0.094
30.3402 -0.093 0.093
30.3453 -0.051 0.094
30.3504 0.207 0.094
30.3555 0.107 0.094
30.3606 -0.099 0.093
30.3657 0.104 0.094
30.3708 0.066 0.094
30.3760 0.005 0.094
30.3811 0.030 0.094
30.3862 0.107 0.094
30.3913 -0.135 0.093
30.3964 -0.064 0.094
30.4015 0.114 0.094
30.4066 0.118 0.094
30.4117 0.172 0.094
30.4168 -0.004 0.094
30.4219 0.074 0.094
30.4270 0.208 0.095
30.4321 -0.085 0.094
30.4372 -0.214 0.093
30.4423 0.084 0.094
30.4474 0.086 0.094
30.4525 -0.146 0.093
30.4576 0.017 0.094
30.4627 -0.091 0.094
30.4678 -0.027 0.094
30.4729 -0.088 0.094
30.4780 -0.004 0.094
30.4831 0.021 0.094
30.4882 -0.253 0.093
30.4933 0.009 0.094
30.4984 -0.052 0.094
30.5035 0.015 0.094
30.5086 0.133 0.095
30.5138 -0.041 0.094
30.5189 0.109 0.094
30.5240 0.206 0.095
30.5291 -0.026 0.094
30.5342 0.040 0.094
30.5393 0.197 0.095
30.5444 0.101 0.094
30.5495 0.147 0.095
30.5546 0.129 0.095
30.5597 0.067 0.094
30.5648 0.116 0.095
30.5699 0.350 0.095
30.5750 0.067 0.094
30.5801 0.172 0.095
30.5852 0.146 0.095
30.5903 -0.022 0.094
30.5954 0.059 0.094
30.6005 0.297 0.095
30.6056 -0.005 0.094
30.6107 0.118 0.095
30.6158 0.360 0.095
30.6209 0.132 0.095
30.6260 0.226 0.095
30.6311 0.218 0.095
30.6362 0.249 0.095
30.6413 0.315 0.095
30.6464 0.131 0.095
30.6516 0.381 0.096
30.6567 0.293 0.095
30.6618 0.344 0.095
30.6669 0.249 0.095
30.6720 0.527 0.096
30.6771 0.804 0.097
30.6822 0.172 0.095
30.6873 0.303 0.095
30.6924 0.737 0.097
30.6975 0.398 0.096
30.7026 0.337 0.095
30.7077 0.624 0.096
30.7128 0.601 0.096
30.7179 0.599 0.096
30.7230 0.560 0.096
30.7281 0.568 0.096
30.7332 0.739 0.097
30.7383 0.648 0.097
30.7434 0.627 0.097
30.7485 0.775 0.097
30.7536 0.881 0.097
30.7587 0.690 0.097
30.7638 0.879 0.097
30.7689 1.002 0.098
30.7740 0.654 0.097
30.7791 0.835 0.097
30.7842 1.156 0.098
30.7894 0.790 0.097
30.7945 0.913 0.098
30.7996 1.188 0.098
30.8047 0.991 0.098
30.8098 0.901 0.097
30.8149 1.161 0.098
30.8200 1.123 0.098
30.8251 1.139 0.098
30.8302 1.316 0.099
30.8353 1.062 0.098
30.8404 1.213 0.099
30.8455 1.387 0.099
30.8506 1.304 0.099
30.8557 1.465 0.099
30.8608 1.550 0.100
30.8659 1.348 0.099
30.8710 1.465 0.099
30.8761 1.622 0.100
30.8812 1.390 0.099
30.8863 1.547 0.100
30.8914 1.775 0.100
30.8965 1.480 0.099
30.9016 1.653 0.100
30.9067 1.800 0.100
30.9118 1.713 0.100
30.9169 1.656 0.100
30.9220 1.950 0.101
30.9272 1.718 0.100
30.9323 2.006 0.101
30.9374 1.850 0.101
30.9425 1.844 0.101
30.9476 1.984 0.101
30.9527 2.049 0.101
30.9578 2.064 0.101
30.9629 2.119 0.101
30.9680 2.149 0.102
30.9731 2.096 0.101
30.9782 2.123 0.101
30.9833 2.328 0.102
30.9884 2.057 0.101
30.9935 2.422 0.102
30.9986 2.447 0.103
31.0037 2.227 0.102
31.0088 2.398 0.102
31.0139 2.594 0.103
31.0190 2.492 0.103
31.0241 2.509 0.103
31.0292 2.685 0.103
31.0343 2.781 0.104
31.0394 2.774 0.104
31.0445 2.541 0.103
31.0496 2.747 0.103
31.0547 2.568 0.103
31.0598 2.743 0.103
31.0650 2.717 0.103
31.0701 2.759 0.103
31.0752 3.070 0.104
31.0803 2.848 0.104
31.0854 3.157 0.105
31.0905 3.053 0.104
31.0956 3.231 0.105
31.1007 3.185 0.105
31.1058 3.322 0.105
31.1109 3.269 0.105
31.1160 3.251 0.105
31.1211 3.396 0.105
31.1262 3.580 0.106
31.1313 3.249 0.105
31.1364 3.573 0.106
31.1415 3.554 0.106
31.1466 3.609 0.106
31.1517 3.496 0.106
31.1568 3.488 0.106
31.1619 3.541 0.106
31.1670 3.591 0.106
31.1721 3.618 0.106
31.1772 3.629 0.106
31.1823 3.842 0.107
31.1874 3.798 0.107
31.1925 3.610 0.106
31.1976 3.766 0.106
31.2028 3.864 0.107
31.2079 3.656 0.106
31.2130 3.888 0.107
31.2181 3.734 0.106
31.2232 3.847 0.107
31.2283 3.954 0.107
31.2334 3.681 0.106
31.2385 3.660 0.106
31.2436 3.934 0.107
31.2487 4.144 0.107
31.2538 3.618 0.106
31.2589 3.841 0.107
31.2640 4.094 0.107
31.2691 3.692 0.106
31.2742 3.849 0.107
31.2793 3.995 0.107
31.2844 3.842 0.107
31.2895 3.852 0.107
31.2946 4.003 0.107
31.2997 3.754 0.106
31.3048 3.953 0.107
31.3099 4.195 0.108
31.3150 3.994 0.107
31.3201 4.027 0.107
31.3252 4.297 0.108
31.3303 4.013 0.107
31.3354 4.169 0.107
31.3406 4.285 0.108
31.3457 3.805 0.106
31.3508 3.974 0.107
31.3559 4.324 0.108
31.3610 4.077 0.107
31.3661 4.310 0.108
31.3712 4.098 0.107
31.3763 3.926 0.107
31.3814 3.928 0.107
31.3865 4.151 0.107
31.3916 3.777 0.106
31.3967 4.111 0.107
31.4018 4.116 0.107
31.4069 3.645 0.106
31.4120 3.984 0.107
31.4171 4.265 0.108
31.4222 3.748 0.106
31.4273 3.834 0.106
31.4324 4.200 0.107
31.4375 3.983 0.107
31.4426 3.722 0.106
31.4477 4.061 0.107
31.4528 3.552 0.105
31.4579 3.805 0.106
31.4630 3.789 0.106
31.4681 3.481 0.105
31.4732 3.660 0.106
31.4784 3.649 0.105
31.4835 3.352 0.105
31.4886 3.487 0.105
31.4937 3.885 0.106
31.4988 3.371 0.105
31.5039 3.664 0.105
31.5090 3.789 0.106
31.5141 3.196 0.104
31.5192 3.518 0.105
31.5243 3.530 0.105
31.5294 3.200 0.104
31.5345 3.305 0.104
31.5396 3.548 0.105
31.5447 3.202 0.104
31.5498 3.293 0.104
31.5549 3.383 0.104
31.5600 3.081 0.103
31.5651 3.239 0.104
31.5702 3.259 0.104
31.5753 2.944 0.103
31.5804 3.005 0.103
31.5855 3.039 0.103
31.5906 2.656 0.102
31.5957 2.730 0.102
31.6008 2.892 0.103
31.6059 2.549 0.102
31.6110 2.722 0.102
31.6162 2.687 0.102
31.6213 2.629 0.102
31.6264 2.526 0.101
31.6315 2.747 0.102
31.6366 2.317 0.101
31.6417 2.444 0.101
31.6468 2.597 0.102
31.6519 2.163 0.100
31.6570 2.291 0.101
31.6621 2.482 0.101
31.6672 1.941 0.099
31.6723 2.187 0.100
31.6774 2.424 0.101
31.6825 1.942 0.099
31.6876 2.110 0.100
31.6927 2.171 0.100
31.6978 1.855 0.099
31.7029 1.923 0.099
31.7080 2.134 0.100
31.7131 1.657 0.098
31.7182 2.038 0.100
31.7233 1.808 0.099
31.7284 1.654 0.098
31.7335 1.707 0.098
31.7386 1.843 0.099
31.7437 1.564 0.098
31.7488 1.562 0.098
31.7540 1.710 0.098
31.7591 1.374 0.097
31.7642 1.449 0.097
31.7693 1.547 0.098
31.7744 1.126 0.096
31.7795 1.304 0.097
31.7846 1.300 0.097
31.7897 1.108 0.096
31.7948 1.185 0.096
31.7999 1.226 0.097
31.8050 1.068 0.096
31.8101 1.038 0.096
31.8152 0.800 0.095
31.8203 0.810 0.095
31.8254 0.747 0.095
31.8305 0.898 0.095
31.8356 0.732 0.095
31.8407 0.751 0.095
31.8458 0.921 0.095
31.8509 0.677 0.094
31.8560 0.731 0.095
31.8611 0.637 0.094
31.8662 0.721 0.094
31.8713 0.636 0.094
31.8764 0.881 0.095
31.8815 0.426 0.093
31.8866 0.589 0.094
31.8918 0.606 0.094
31.8969 0.406 0.093
31.9020 0.374 0.093
31.9071 0.452 0.093
31.9122 0.361 0.093
31.9173 0.342 0.093
31.9224 0.444 0.093
31.9275 0.247 0.092
31.9326 0.403 0.093
31.9377 0.420 0.093
31.9428 0.280 0.093
31.9479 0.108 0.092
31.9530 0.331 0.093
31.9581 0.363 0.093
31.9632 0.221 0.092
31.9683 0.190 0.092
31.9734 0.120 0.092
31.9785 -0.016 0.091
31.9836 0.251 0.092
31.9887 0.133 0.092
31.9938 0.085 0.092
31.9989 0.051 0.091
32.0040 -0.114 0.091
32.0091 0.052 0.091
32.0142 0.119 0.092
32.0193 0.067 0.091
32.0244 -0.091 0.091
32.0296 0.199 0.092
32.0347 -0.080 0.091
32.0398 0.072 0.091
32.0449 -0.031 0.091
32.0500 -0.080 0.091
32.0551 -0.011 0.091
32.0602 0.006 0.091
32.0653 0.034 0.091
32.0704 -0.118 0.090
32.0755 0.044 0.091
32.0806 0.031 0.091
32.0857 0.007 0.091
32.0908 0.031 0.091
32.0959 -0.172 0.090
32.1010 0.040 0.091
32.1061 -0.024 0.090
32.1112 -0.123 0.090
32.1163 0.072 0.091
32.1214 0.013 0.090
32.1265 -0.324 0.089
32.1316 -0.018 0.090
32.1367 0.045 0.091
32.1418 -0.069 0.090
32.1469 -0.038 0.090
32.1520 0.009 0.090
32.1571 -0.131 0.090
32.1622 0.083 0.091
32.1674 -0.018 0.090
32.1725 -0.090 0.090
32.1776 -0.031 0.090
32.1827 0.051 0.090
32.1878 -0.013 0.090
32.1929 0.101 0.091
32.1980 0.097 0.091
32.2031 -0.016 0.090
32.2082 0.099 0.091
32.2133 -0.152 0.090
32.2184 -0.033 0.090
32.2235 -0.103 0.090
32.2286 0.060 0.090
32.2337 -0.198 0.089
32.2388 -0.022 0.090
32.2439 0.095 0.091
32.2490 -0.215 0.089
32.2541 -0.089 0.090
32.2592 0.021 0.090
32.2643 -0.092 0.090
32.2694 -0.015 0.090
32.2745 0.125 0.091
32.2796 -0.213 0.089
32.2847 0.086 0.090
32.2898 -0.138 0.090
32.2949 0.072 0.090
32.3000 0.053 0.090
32.3052 0.040 0.090
32.3103 0.012 0.090
32.3154 0.158 0.091
32.3205 0.084 0.090
32.3256 -0.047 0.090
32.3307 0.048 0.090
32.3358 -0.018 0.090
32.3409 -0.090 0.090
32.3460 -0.069 0.090
32.3511 -0.073 0.090
32.3562 -0.027 0.090
32.3613 -0.082 0.090
32.3664 -0.002 0.090
32.3715 -0.106 0.090
32.3766 0.155 0.091
32.3817 0.119 0.091
32.3868 -0.090 0.090
32.3919 -0.159 0.090
32.3970 0.182 0.091
32.4021 -0.031 0.090
32.4072 -0.064 0.090
32.4123 0.084 0.091
32.4174 -0.026 0.090
32.4225 -0.101 0.090
32.4276 0.303 0.091
32.4327 -0.100 0.090
32.4378 -0.036 0.090
32.4430 0.254 0.091
32.4481 0.045 0.091
32.4532 -0.068 0.090
32.4583 0.105 0.091
32.4634 0.160 0.091
32.4685 0.004 0.090
32.4736 0.272 0.091
32.4787 0.078 0.091
32.4838 0.044 0.091
32.4889 0.182 0.091
32.4940 0.014 0.091
32.4991 0.158 0.091
32.5042 0.159 0.091
32.5093 0.116 0.091
32.5144 0.229 0.091
32.5195 0.256 0.091
32.5246 0.269 0.092
32.5297 0.171 0.091
32.5348 0.071 0.091
32.5399 0.267 0.092
32.5450 0.229 0.091
32.5501 0.210 0.091
32.5552 0.208 0.091
32.5603 0.056 0.091
32.5654 0.181 0.091
32.5705 0.321 0.092
32.5756 0.163 0.091
32.5808 0.124 0.091
32.5859 0.304 0.092
32.5910 0.129 0.091
32.5961 0.202 0.091
32.6012 0.186 0.091
32.6063 0.209 0.091
32.6114 0.182 0.091
32.6165 0.350 0.092
32.6216 0.292 0.092
32.6267 0.327 0.092
32.6318 0.462 0.092
32.6369 0.366 0.092
32.6420 0.254 0.092
32.6471 0.410 0.092
32.6522 0.220 0.092
32.6573 0.411 0.092
32.6624 0.313 0.092
32.6675 0.300 0.092
32.6726 0.211 0.092
32.6777 0.543 0.093
32.6828 0.380 0.092
32.6879 0.394 0.092
32.6930 0.642 0.093
32.6981 0.330 0.092
32.7032 0.531 0.093
32.7083 0.505 0.093
32.7134 0.380 0.092
32.7186 0.371 0.092
32.7237 0.387 0.092
32.7288 0.314 0.092
32.7339 0.524 0.093
32.7390 0.581 0.093
32.7441 0.393 0.092
32.7492 0.493 0.093
32.7543 0.624 0.093
32.7594 0.668 0.093
32.7645 0.725 0.094
32.7696 0.588 0.093
32.7747 0.481 0.093
32.7798 0.612 0.093
32.7849 0.582 0.093
32.7900 0.661 0.093
32.7951 0.635 0.093
32.8002 0.627 0.093
32.8053 0.533 0.093
32.8104 0.838 0.094
32.8155 0.755 0.094
32.8206 0.700 0.093
32.8257 0.675 0.093
32.8308 0.797 0.094
32.8359 0.808 0.094
32.8410 0.815 0.094
32.8461 0.933 0.094
32.8512 0.726 0.094
32.8564 0.935 0.094
32.8615 0.948 0.094
32.8666 0.564 0.093
32.8717 0.977 0.094
32.8768 0.987 0.095
32.8819 0.789 0.094
32.8870 0.859 0.094
32.8921 0.698 0.094
32.8972 0.660 0.093
32.9023 0.802 0.094
32.9074 0.918 0.094
32.9125 0.863 0.094
32.9176 0.871 0.094
32.9227 0.889 0.094
32.9278 0.836 0.094
32.9329 0.958 0.094
32.9380 1.009 0.095
32.9431 1.184 0.095
32.9482 1.108 0.095
32.9533 1.110 0.095
32.9584 0.842 0.094
32.9635 1.019 0.095
32.9686 1.217 0.095
32.9737 1.114 0.095
32.9788 1.260 0.095
32.9839 1.411 0.096
32.9890 1.229 0.095
32.9942 1.269 0.096
32.9993 1.472 0.096
33.0044 1.232 0.095
33.0095 1.372 0.096
33.0146 1.386 0.096
33.0197 1.356 0.096
33.0248 1.663 0.097
33.0299 1.759 0.097
33.0350 1.700 0.097
33.0401 1.985 0.098
33.0452 2.125 0.098
33.0503 1.997 0.098
33.0554 2.231 0.099
33.0605 2.465 0.099
33.0656 2.585 0.100
33.0707 2.662 0.100
33.0758 3.069 0.101
33.0809 3.178 0.102
33.0860 3.499 0.103
33.0911 3.924 0.104
33.0962 3.807 0.104
33.1013 4.205 0.105
33.1064 4.535 0.106
33.1115 4.480 0.106
33.1166 4.838 0.107
33.1217 5.300 0.108
33.1268 5.147 0.108
33.1320 5.405 0.109
33.1371 5.524 0.109
33.1422 5.383 0.109
33.1473 5.438 0.109
33.1524 5.331 0.108
33.1575 5.204 0.108
33.1626 5.021 0.107
33.1677 4.612 0.106
33.1728 4.465 0.106
33.1779 4.263 0.105
33.1830 3.997 0.104
33.1881 3.685 0.103
33.1932 3.876 0.104
33.1983 3.641 0.103
33.2034 3.407 0.102
33.2085 3.314 0.102
33.2136 3.448 0.103
33.2187 3.242 0.102
33.2238 3.291 0.102
33.2289 3.499 0.103
33.2340 3.474 0.103
33.2391 3.650 0.103
33.2442 3.882 0.104
33.2493 3.729 0.103
33.2544 4.036 0.104
33.2595 4.233 0.105
33.2646 4.402 0.105
33.2698 4.655 0.106
33.2749 4.965 0.107
33.2800 4.648 0.106
33.2851 5.265 0.108
33.2902 5.219 0.108
33.2953 5.201 0.108
33.3004 5.347 0.108
33.3055 5.512 0.109
33.3106 5.518 0.109
33.3157 5.716 0.109
33.3208 5.781 0.110
33.3259 5.651 0.109
33.3310 5.782 0.110
33.3361 5.628 0.109
33.3412 5.532 0.109
33.3463 5.719 0.109
33.3514 5.686 0.109
33.3565 5.419 0.108
33.3616 5.501 0.109
33.3667 5.850 0.110
33.3718 5.658 0.109
33.3769 5.694 0.109
33.3820 5.932 0.110
33.3871 5.974 0.110
33.3922 6.123 0.110
33.3973 6.290 0.111
33.4024 6.386 0.111
33.4076 6.742 0.112
33.4127 6.847 0.112
33.4178 7.013 0.113
33.4229 7.374 0.114
33.4280 7.456 0.114
33.4331 7.649 0.115
33.4382 7.714 0.115
33.4433 8.157 0.116
33.4484 8.065 0.116
33.4535 8.426 0.117
33.4586 8.401 0.117
33.4637 8.066 0.116
33.4688 8.151 0.116
33.4739 8.057 0.116
33.4790 7.885 0.115
33.4841 7.713 0.115
33.4892 7.405 0.114
33.4943 7.201 0.113
33.4994 7.358 0.114
33.5045 7.324 0.114
33.5096 6.715 0.112
33.5147 6.547 0.111
33.5198 6.317 0.111
33.5249 5.991 0.110
33.5300 5.999 0.110
33.5351 5.608 0.109
33.5402 5.239 0.107
33.5454 4.967 0.107
33.5505 4.904 0.106
33.5556 4.522 0.105
33.5607 4.033 0.104
33.5658 4.097 0.104
33.5709 3.752 0.103
33.5760 3.565 0.102
33.5811 3.550 0.102
33.5862 3.237 0.101
33.5913 3.375 0.101
33.5964 3.312 0.101
33.6015 3.268 0.101
33.6066 3.253 0.101
33.6117 3.423 0.102
33.6168 3.513 0.102
33.6219 3.319 0.101
33.6270 3.581 0.102
33.6321 3.480 0.102
33.6372 3.505 0.102
33.6423 3.639 0.102
33.6474 3.389 0.101
33.6525 3.346 0.101
33.6576 3.644 0.102
33.6627 3.304 0.101
33.6678 3.331 0.101
33.6729 3.426 0.101
33.6780 3.515 0.102
33.6832 3.247 0.101
33.6883 3.075 0.100
33.6934 2.895 0.100
33.6985 2.967 0.100
33.7036 2.825 0.099
33.7087 2.786 0.099
33.7138 2.627 0.099
33.7189 2.488 0.098
33.7240 2.112 0.097
33.7291 2.260 0.097
33.7342 2.237 0.097
33.7393 2.051 0.097
33.7444 1.830 0.096
33.7495 1.808 0.096
33.7546 1.632 0.095
33.7597 1.477 0.095
33.7648 1.501 0.095
33.7699 1.438 0.094
33.7750 1.097 0.093
33.7801 1.132 0.093
33.7852 1.035 0.093
33.7903 0.764 0.092
33.7954 0.740 0.092
33.8005 0.782 0.092
33.8056 0.507 0.091
33.8107 0.598 0.091
33.8158 0.537 0.091
33.8210 0.176 0.090
33.8261 0.271 0.090
33.8312 0.204 0.090
33.8363 0.284 0.090
33.8414 0.207 0.090
33.8465 0.228 0.090
33.8516 0.020 0.089
33.8567 0.402 0.090
33.8618 0.128 0.089
33.8669 0.096 0.089
33.8720 0.196 0.090
33.8771 0.144 0.089
33.8822 0.000 0.089
33.8873 0.123 0.089
33.8924 0.268 0.090
33.8975 0.083 0.089
33.9026 0.119 0.089
33.9077 0.169 0.089
33.9128 -0.116 0.088
33.9179 -0.087 0.088
33.9230 0.228 0.089
33.9281 -0.092 0.088
33.9332 -0.028 0.088
33.9383 0.071 0.089
33.9434 -0.044 0.088
33.9485 -0.124 0.088
33.9537 0.150 0.089
33.9588 0.008 0.088
33.9639 0.051 0.089
33.9690 0.088 0.089
33.9741 -0.064 0.088
33.9792 -0.163 0.088
33.9843 0.052 0.088
33.9894 -0.067 0.088
33.9945 0.208 0.089
33.9996 0.042 0.088
34.0047 -0.151 0.088
34.0098 0.075 0.089
34.0149 0.175 0.089
34.0200 -0.085 0.088
34.0251 0.042 0.089
34.0302 0.233 0.089
34.0353 0.045 0.089
34.0404 0.208 0.089
34.0455 0.265 0.089
34.0506 -0.106 0.088
34.0557 0.182 0.089
34.0608 0.254 0.089
34.0659 0.120 0.089
34.0710 0.000 0.089
34.0761 0.090 0.089
34.0812 -0.091 0.088
34.0863 0.313 0.090
34.0915 0.262 0.090
34.0966 0.074 0.089
34.1017 0.243 0.090
34.1068 0.123 0.089
34.1119 0.002 0.089
34.1170 0.027 0.089
34.1221 0.097 0.089
34.1272 0.111 0.089
34.1323 0.176 0.089
34.1374 -0.006 0.089
34.1425 0.109 0.089
34.1476 0.109 0.089
34.1527 0.012 0.089
34.1578 0.010 0.089
34.1629 0.090 0.089
34.1680 -0.129 0.088
34.1731 -0.093 0.089
34.1782 0.233 0.090
34.1833 0.113 0.089
34.1884 0.113 0.089
34.1935 0.098 0.089
34.1986 0.005 0.089
34.2037 -0.078 0.089
34.2088 0.029 0.089
34.2139 0.130 0.090
34.2190 -0.204 0.088
34.2241 0.095 0.089
34.2293 0.284 0.090
34.2344 0.024 0.089
34.2395 -0.006 0.089
34.2446 -0.031 0.089
34.2497 -0.132 0.089
34.2548 0.049 0.089
34.2599 0.109 0.090
34.2650 -0.017 0.089
34.2701 0.141 0.090
34.2752 0.020 0.089
34.2803 -0.157 0.089
34.2854 -0.025 0.089
34.2905 0.094 0.090
34.2956 -0.089 0.089
34.3007 -0.095 0.089
34.3058 0.140 0.090
34.3109 -0.108 0.089
34.3160 0.062 0.090
34.3211 -0.025 0.090
34.3262 0.129 0.090
34.3313 0.105 0.090
34.3364 0.186 0.091
34.3415 0.113 0.090
34.3466 0.020 0.090
34.3517 0.225 0.091
34.3568 -0.008 0.090
34.3619 0.159 0.091
34.3671 -0.005 0.090
34.3722 -0.127 0.090
34.3773 0.083 0.091
34.3824 0.018 0.090
34.3875 -0.071 0.090
34.3926 -0.024 0.090
34.3977 0.153 0.091
34.4028 -0.022 0.091
34.4079 0.076 0.091
34.4130 0.116 0.091
34.4181 -0.143 0.090
34.4232 0.081 0.091
34.4283 0.183 0.091
34.4334 -0.041 0.091
34.4385 0.096 0.091
34.4436 0.129 0.091
34.4487 -0.007 0.091
34.4538 0.247 0.092
34.4589 0.006 0.091
34.4640 -0.034 0.091
34.4691 -0.007 0.091
34.4742 0.149 0.092
34.4793 -0.038 0.091
34.4844 0.149 0.092
34.4895 0.045 0.092
34.4946 -0.018 0.091
34.4997 -0.009 0.091
34.5049 -0.051 0.091
34.5100 -0.048 0.091
34.5151 -0.111 0.091
34.5202 0.094 0.092
34.5253 -0.070 0.091
34.5304 -0.091 0.091
34.5355 -0.042 0.092
34.5406 -0.035 0.092
34.5457 0.106 0.092
34.5508 -0.026 0.092
34.5559 -0.092 0.092
34.5610 -0.061 0.092
34.5661 -0.040 0.092
34.5712 -0.068 0.092
34.5763 0.078 0.093
34.5814 -0.044 0.092
34.5865 -0.178 0.092
34.5916 0.054 0.093
34.5967 -0.013 0.093
34.6018 0.028 0.093
34.6069 0.076 0.093
34.6120 0.021 0.093
34.6171 0.000 0.093
